time,seconds_elapsed,z,y,x
1733075403123229200,0.141229248046875,-1.9467682838439941,-2.8353705406188965,-1.3466086387634277
1733075403139930400,0.157930419921875,-3.1472907066345215,-0.015512704849243164,-6.408555030822754
1733075403156653000,0.174653076171875,-2.174989700317383,0.3417172431945801,-5.562229633331299
1733075403173348000,0.19134814453125,-1.0910186767578125,-1.3884679079055786,-3.600701332092285
1733075403190063400,0.2080634765625,1.795578956604004,-5.196440696716309,0.3006906509399414
1733075403206796000,0.224796142578125,4.531912803649902,-4.901134014129639,1.6587735414505005
1733075403223509800,0.241509765625,6.123856544494629,-0.9049312472343445,1.807772159576416
1733075403240226300,0.258226318359375,9.496368408203125,2.9452626705169678,1.7208189964294434
1733075403256923100,0.274923095703125,9.400550842285156,-0.7598204612731934,-0.31374382972717285
1733075403273659400,0.291659423828125,7.129962921142578,-2.412154197692871,-0.6840054988861084
1733075403290370600,0.30837060546875,6.042664527893066,-2.0568697452545166,0.2166595458984375
1733075403307084800,0.325084716796875,4.4986677169799805,-2.442863941192627,0.8008623123168945
1733075403323792600,0.341792724609375,2.3524599075317383,-1.06121027469635,2.3661978244781494
1733075403340515800,0.358515869140625,0.4294319152832031,-0.262553334236145,2.458298683166504
1733075403357226500,0.3752265625,-0.19178390502929688,-0.6867048740386963,0.925159215927124
1733075403373953800,0.391953857421875,0.8082981109619141,-0.9407147169113159,-0.1711573600769043
1733075403390652000,0.40865185546875,2.4288482666015625,-1.0467725992202759,-0.06501531600952148
1733075403407381800,0.4253818359375,2.6831483840942383,-1.3341407775878906,0.06743097305297852
1733075403424093000,0.442093017578125,1.334451675415039,-1.5893597602844238,-0.30782413482666016
1733075403440810800,0.458810791015625,0.3396568298339844,-3.246077299118042,-2.5050747394561768
1733075403457527300,0.47552734375,-0.11880016326904297,-2.454714298248291,-2.4309158325195312
1733075403474234400,0.492234375,0.02560138702392578,-1.8470383882522583,-1.1729180812835693
1733075403490963700,0.508963623046875,-1.129857063293457,0.29937243461608887,3.8115360736846924
1733075403507669200,0.525669189453125,-1.291055679321289,0.7210824489593506,3.7467269897460938
1733075403524365600,0.542365478515625,-1.9139165878295898,-1.2854089736938477,0.4411594867706299
1733075403541101000,0.55910107421875,-1.8087224960327148,-0.9505906105041504,-0.5061790943145752
1733075403557796900,0.575796875,-0.861149787902832,-1.3209176063537598,-0.38446569442749023
1733075403574523400,0.5925234375,0.0123443603515625,-1.3095980882644653,0.08114790916442871
1733075403591215900,0.6092158203125,0.2957000732421875,-1.1581833362579346,0.16312932968139648
1733075403607950300,0.625950439453125,0.22170257568359375,-1.2225611209869385,0.06821608543395996
1733075403624659500,0.642659423828125,-0.35308074951171875,-1.0292739868164062,-0.32251667976379395
1733075403641383200,0.659383056640625,-0.7144594192504883,-0.886854887008667,-0.6629543304443359
1733075403658085400,0.67608544921875,-0.5490150451660156,-0.5734164714813232,-0.45437896251678467
1733075403674806000,0.692805908203125,-0.0792226791381836,-0.7564139366149902,-0.3268778324127197
1733075403691527700,0.709527587890625,0.4334430694580078,-0.8248999118804932,-0.2811117172241211
1733075403708239000,0.726239013671875,0.6545944213867188,-0.920306921005249,-0.27373790740966797
1733075403724969500,0.742969482421875,0.4201669692993164,-0.9480679035186768,-0.30477631092071533
1733075403741672200,0.759672119140625,-0.11904048919677734,-0.8325674533843994,-0.2613976001739502
1733075403758394600,0.77639453125,-0.42663002014160156,-0.6949474811553955,-0.43068182468414307
1733075403775113000,0.793113037109375,-0.0614166259765625,-0.6433513164520264,-0.5466135740280151
1733075403791816200,0.809816162109375,0.3972911834716797,-0.7774012088775635,-0.3849869966506958
1733075403808532500,0.826532470703125,0.8342084884643555,-0.986461877822876,-0.08601415157318115
1733075403825241000,0.843240966796875,0.8155965805053711,-0.9930840730667114,-0.09686195850372314
1733075403841972000,0.859971923828125,0.5512542724609375,-0.9434069395065308,-0.3003700375556946
1733075403858687700,0.876687744140625,0.34034156799316406,-0.7916746139526367,-0.4330877661705017
1733075403875398400,0.8933984375,0.1560382843017578,-0.7883737087249756,-0.4775744676589966
1733075403892123400,0.910123291015625,0.08145523071289062,-0.8097782135009766,-0.30336278676986694
1733075403908822800,0.92682275390625,0.2643756866455078,-0.9068853855133057,-0.063958078622818
1733075403925537800,0.943537841796875,0.36409568786621094,-0.8248149156570435,-0.2527623176574707
1733075403942270200,0.960270263671875,0.37247657775878906,-0.7212785482406616,-0.31353241205215454
1733075403958983200,0.976983154296875,0.30631160736083984,-0.6299116611480713,-0.4536970257759094
1733075403975694300,0.9936943359375,0.06384086608886719,-0.5297644138336182,-0.45507633686065674
1733075403992406500,1.010406494140625,0.06940937042236328,-0.713337779045105,-0.31585901975631714
1733075404009129000,1.02712890625,0.06781196594238281,-0.8099141120910645,-0.13782882690429688
1733075404025842400,1.043842529296875,-0.09910202026367188,-0.7529361248016357,-0.10624754428863525
1733075404042537500,1.060537353515625,-0.15126705169677734,-0.6513724327087402,-0.19861900806427002
1733075404059258600,1.077258544921875,-0.1280069351196289,-0.5745582580566406,-0.08109450340270996
1733075404075977000,1.09397705078125,0.1952047348022461,-0.8583749532699585,-0.14159154891967773
1733075404092689700,1.110689697265625,0.3763284683227539,-0.9250615835189819,-0.051360130310058594
1733075404109405700,1.12740576171875,0.05772686004638672,-0.6513371467590332,-0.3018118143081665
1733075404126117400,1.144117431640625,-0.8667373657226562,-0.28896284103393555,-0.2301260232925415
1733075404142834200,1.160834228515625,-1.3115630149841309,-0.5262196063995361,0.19927561283111572
1733075404159551000,1.177551025390625,-0.6906747817993164,-1.0986077785491943,0.013435125350952148
1733075404176264700,1.1942646484375,0.20322132110595703,-1.0263049602508545,0.06093037128448486
1733075404192979000,1.21097900390625,0.43608760833740234,-1.0474607944488525,-0.43781161308288574
1733075404209696300,1.2276962890625,0.5596141815185547,-0.8799841403961182,-0.8507797718048096
1733075404226420200,1.244420166015625,0.5086727142333984,-0.3914613723754883,-0.5976650714874268
1733075404243159300,1.2611591796875,-0.2756080627441406,-0.5646131038665771,0.03623604774475098
1733075404259852800,1.277852783203125,-0.23530006408691406,-0.9885075092315674,0.4451313018798828
1733075404276569300,1.2945693359375,0.3910531997680664,-0.937769889831543,0.0921468734741211
1733075404293277400,1.31127734375,-0.05926322937011719,-0.42612528800964355,-0.28500258922576904
1733075404309997600,1.32799755859375,-1.0515470504760742,-0.39777183532714844,-0.16536974906921387
1733075404326714000,1.344714111328125,-1.476954460144043,-0.8470524549484253,0.6144000291824341
1733075404343430000,1.361429931640625,-2.7863121032714844,-1.2807056903839111,1.359801173210144
1733075404360138800,1.378138671875,-1.7506723403930664,-1.7536771297454834,0.1981317400932312
1733075404376862500,1.394862548828125,-0.18310546875,-1.3277919292449951,-1.2970867156982422
1733075404393576700,1.41157666015625,1.0420818328857422,-1.0804210901260376,-1.79439115524292
1733075404410289400,1.428289306640625,1.5545988082885742,-1.1027544736862183,-1.6633851528167725
1733075404426988300,1.44498828125,0.9989967346191406,-1.3830459117889404,-0.9835548400878906
1733075404443724800,1.461724853515625,0.5801076889038086,-1.200092077255249,-0.5106285810470581
1733075404460435000,1.47843505859375,0.5419178009033203,-1.0817124843597412,-0.501247763633728
1733075404477150200,1.495150146484375,0.35621166229248047,-0.9196666479110718,-0.5426058173179626
1733075404493859000,1.511859130859375,-0.07913875579833984,-0.8659908771514893,-0.5354304909706116
1733075404510587600,1.528587646484375,-0.43035411834716797,-0.7896757125854492,-0.6001155376434326
1733075404527279900,1.54527978515625,-0.12684249877929688,-1.0743308067321777,-0.8031719923019409
1733075404544007400,1.56200732421875,0.8444690704345703,-1.702613115310669,-0.7686895132064819
1733075404560714200,1.57871435546875,1.8115272521972656,-1.392681360244751,-0.21458634734153748
1733075404577430000,1.595429931640625,1.8183250427246094,-1.0777276754379272,-0.04289683699607849
1733075404594144800,1.612144775390625,1.035853385925293,-0.9321621656417847,-0.7289900779724121
1733075404610860800,1.62886083984375,0.2660951614379883,-0.8281648755073547,-1.311342716217041
1733075404627572700,1.64557275390625,-0.30379295349121094,-1.0261378288269043,-1.142717957496643
1733075404644293000,1.662293212890625,-0.5045261383056641,-1.1338695287704468,-0.6306988000869751
1733075404661007600,1.679007568359375,-0.31830501556396484,-1.1638087034225464,-0.40562325716018677
1733075404677718500,1.695718505859375,-0.6990013122558594,-1.123744010925293,-0.6932272911071777
1733075404694440000,1.71243994140625,-0.38401126861572266,-0.9929118752479553,-0.990809440612793
1733075404711140000,1.72914013671875,0.05184173583984375,-1.020490288734436,-0.6990352869033813
1733075404727878000,1.7458779296875,0.37230873107910156,-1.0530962944030762,-0.50583815574646
1733075404744595200,1.76259521484375,0.2066030502319336,-1.1518659591674805,-0.13573560118675232
1733075404761309700,1.779309814453125,-0.2843141555786133,-1.0190280675888062,0.11561107635498047
1733075404778035500,1.796035400390625,-0.3640279769897461,-1.0339809656143188,-0.3759923577308655
1733075404794738700,1.81273876953125,0.26387977600097656,-0.8030756711959839,-0.8539324402809143
1733075404811456500,1.82945654296875,0.06287384033203125,-0.7041081190109253,-0.7879323959350586
1733075404828169000,1.8461689453125,-1.0009288787841797,-0.9223847985267639,-0.6027131676673889
1733075404844884000,1.862884033203125,-0.641758918762207,-0.48864564299583435,-0.16975069046020508
1733075404861601000,1.87960107421875,-0.2920961380004883,-0.6201441884040833,0.3142147660255432
1733075404878315500,1.8963154296875,-0.12512493133544922,-0.7577818036079407,0.1844691038131714
1733075404895035100,1.91303515625,-0.02768707275390625,-0.7768607139587402,-0.061329007148742676
1733075404911748000,1.929748046875,-0.14058494567871094,-0.7403026819229126,-0.40679776668548584
1733075404928460000,1.9464599609375,1.0477752685546875,-0.7529084086418152,0.20938587188720703
1733075404945175800,1.96317578125,0.573643684387207,-1.0194507837295532,0.6514110565185547
1733075404961892400,1.979892333984375,-0.21330928802490234,-1.4512073993682861,0.6969219446182251
1733075404978607600,1.996607666015625,-0.14664649963378906,-2.2481765747070312,0.8886916637420654
1733075404995319800,2.01331982421875,0.19494915008544922,-1.8929296731948853,0.14325666427612305
1733075405012022800,2.030022705078125,-1.1605157852172852,-1.8606581687927246,0.4510185718536377
1733075405028740900,2.046740966796875,-3.3449296951293945,-1.0543034076690674,0.6205151081085205
1733075405045455600,2.06345556640625,-4.0660223960876465,-0.4216262102127075,0.22766971588134766
1733075405062169900,2.080169921875,-2.5197744369506836,-0.6862825155258179,-0.015901565551757812
1733075405078887400,2.096887451171875,-1.9835891723632812,-1.0375587940216064,0.5967960357666016
1733075405095599600,2.113599609375,-2.035111427307129,-1.6608892679214478,1.4113845825195312
1733075405112317200,2.130317138671875,-2.079071521759033,-2.227585792541504,2.190951108932495
1733075405129031700,2.14703173828125,-1.778170108795166,-2.115117073059082,2.468878746032715
1733075405145746200,2.16374609375,-1.7291903495788574,-2.3307671546936035,3.1947197914123535
1733075405162462000,2.1804619140625,-1.2950196266174316,-2.769547700881958,3.079909324645996
1733075405179178500,2.197178466796875,-0.5411868095397949,-3.383094549179077,2.417924404144287
1733075405195890700,2.213890625,0.9478397369384766,-3.9095582962036133,1.0717735290527344
1733075405212624000,2.230623779296875,2.244173526763916,-4.093809604644775,1.634469985961914
1733075405229334300,2.247334228515625,2.1566638946533203,-5.477436542510986,1.9460325241088867
1733075405246049500,2.264049560546875,0.9643917083740234,-5.080287933349609,5.642816066741943
1733075405262765600,2.280765625,0.41045403480529785,-6.420899391174316,7.031298637390137
1733075405279481300,2.2974814453125,-0.051749348640441895,-7.75327730178833,5.903805732727051
1733075405296201500,2.314201416015625,-1.1580023765563965,-7.33241081237793,2.5887303352355957
1733075405312913000,2.330912841796875,-2.923856496810913,-6.913447380065918,-2.189146041870117
1733075405329608200,2.347608154296875,-2.3141584396362305,-3.3373005390167236,-8.591108322143555
1733075405346345200,2.36434521484375,0.23548167943954468,-0.8167374134063721,-11.996939659118652
1733075405363052300,2.38105224609375,0.42472267150878906,-0.9718618392944336,-11.870967864990234
1733075405379774500,2.3977744140625,0.6305846571922302,-1.4077749252319336,-10.06782341003418
1733075405396471000,2.414470947265625,0.09218347072601318,-1.565617561340332,-9.78783893585205
1733075405413200100,2.4312001953125,-1.8891549110412598,0.671757698059082,-13.831005096435547
1733075405429916400,2.44791650390625,-3.1907553672790527,2.6736984252929688,-14.781612396240234
1733075405446633000,2.464633056640625,-7.4210286140441895,3.0834972858428955,-9.885568618774414
1733075405463347700,2.48134765625,-20.157699584960938,1.7424473762512207,-3.0490589141845703
1733075405480063200,2.498063232421875,-12.089665412902832,2.789135456085205,-8.327048301696777
1733075405496761900,2.514761962890625,3.9395713806152344,4.865785121917725,-4.747637748718262
1733075405513483000,2.53148291015625,0.0005676150321960449,1.6170339584350586,-0.7444219589233398
1733075405530195700,2.54819580078125,-1.8924660682678223,1.9147894382476807,3.401826858520508
1733075405546911500,2.564911376953125,1.9138473272323608,2.2283623218536377,2.8812642097473145
1733075405563626800,2.581626708984375,3.9130053520202637,1.5562031269073486,3.2498464584350586
1733075405580343300,2.59834326171875,2.338244915008545,-0.36630475521087646,8.367500305175781
1733075405597067800,2.61506787109375,1.0419968366622925,-0.8271927833557129,8.374926567077637
1733075405613774600,2.631774658203125,3.434011220932007,-2.5299172401428223,6.6957550048828125
1733075405630472000,2.648471923828125,3.2005982398986816,-3.351470708847046,8.092469215393066
1733075405647203000,2.665203125,0.7144243717193604,-3.451234817504883,8.29924488067627
1733075405663918000,2.68191796875,-0.2804405689239502,-1.903090000152588,6.021603107452393
1733075405680631600,2.698631591796875,0.772144079208374,-0.748481035232544,3.6618518829345703
1733075405697354500,2.7153544921875,2.436124086380005,-0.269628643989563,0.3137798309326172
1733075405714077000,2.732076904296875,1.89751398563385,-0.324582576751709,-0.5142021179199219
1733075405730774000,2.74877392578125,1.5312601327896118,-0.3878016471862793,-1.668440818786621
1733075405747505400,2.76550537109375,0.5359749794006348,-0.19530725479125977,-3.98886775970459
1733075405764222200,2.78222216796875,0.8002605438232422,0.37688231468200684,-7.105236053466797
1733075405780939300,2.798939208984375,0.793291449546814,-1.7167081832885742,-8.051785469055176
1733075405797635300,2.81563525390625,2.114624500274658,-1.3270480632781982,-6.196654319763184
1733075405814367700,2.83236767578125,2.242745876312256,-0.8082075119018555,-3.2595224380493164
1733075405831084300,2.849084228515625,1.8554439544677734,-1.002695083618164,-0.8873929977416992
1733075405847783200,2.865783203125,1.7804811000823975,-2.035977840423584,0.6061139106750488
1733075405864511500,2.882511474609375,2.167999029159546,-2.614656925201416,1.6846122741699219
1733075405881229800,2.899229736328125,2.0791475772857666,-2.062006950378418,2.0638504028320312
1733075405897938200,2.915938232421875,1.5331670045852661,-1.468033790588379,2.1476521492004395
1733075405914646300,2.932646240234375,1.1153473854064941,-1.1026034355163574,2.1376705169677734
1733075405931355400,2.94935546875,1.2156519889831543,-0.7260985374450684,2.1764583587646484
1733075405948088800,2.9660888671875,1.6496798992156982,-0.12937259674072266,2.4025421142578125
1733075405964805400,2.982805419921875,2.227036714553833,0.3745431900024414,2.0025858879089355
1733075405981500000,2.9995,1.7494559288024902,0.12413978576660156,0.2948722839355469
1733075405998208800,3.016208740234375,1.4985778331756592,-0.7281970977783203,-0.908536434173584
1733075406014939000,3.03293896484375,1.332729697227478,-0.913048267364502,-2.2078857421875
1733075406031655200,3.0496552734375,1.18803071975708,-0.41139745712280273,-3.9761056900024414
1733075406048370000,3.066369873046875,1.4326164722442627,-0.25039196014404297,-4.217958450317383
1733075406065081600,3.08308154296875,1.2813653945922852,-0.6758918762207031,-2.987916946411133
1733075406081815300,3.099815185546875,0.4475640654563904,-1.1766858100891113,-3.211247444152832
1733075406098510600,3.116510498046875,0.40698885917663574,-1.7940177917480469,-1.798729419708252
1733075406115225600,3.1332255859375,1.5161497592926025,-1.8131012916564941,0.3323683738708496
1733075406131952400,3.149952392578125,2.163691759109497,0.10068130493164062,1.2942848205566406
1733075406148659700,3.16665966796875,2.3526628017425537,1.8629589080810547,0.9781613349914551
1733075406165373400,3.18337353515625,1.3571631908416748,2.9942963123321533,-0.6514997482299805
1733075406182090800,3.2000908203125,0.012071102857589722,3.577467441558838,-1.0455713272094727
1733075406198817500,3.216817626953125,-1.3005812168121338,4.194588661193848,-0.5837359428405762
1733075406215534000,3.2335341796875,-1.8730289936065674,4.1977715492248535,0.3126988410949707
1733075406232248300,3.250248291015625,-1.8426233530044556,3.6945295333862305,1.0501317977905273
1733075406248966100,3.266966064453125,-1.3554167747497559,3.0754480361938477,1.0782270431518555
1733075406265655600,3.283655517578125,0.519884467124939,3.0021297931671143,2.1865105628967285
1733075406282377200,3.300377197265625,2.6421642303466797,0.43100929260253906,1.2610602378845215
1733075406299084500,3.31708447265625,4.288832187652588,-1.3804869651794434,0.6821403503417969
1733075406315825400,3.333825439453125,4.044206619262695,-2.3263015747070312,1.8940520286560059
1733075406332542700,3.350542724609375,3.5537004470825195,-2.9838523864746094,2.515486717224121
1733075406349254000,3.36725390625,3.8572864532470703,-2.2678065299987793,1.762681007385254
1733075406365972200,3.38397216796875,2.130819320678711,-0.19015121459960938,-1.5195879936218262
1733075406382685700,3.400685791015625,-0.5528057813644409,1.4136977195739746,-2.0267109870910645
1733075406399398700,3.417398681640625,-1.004892110824585,1.644352912902832,-0.7374386787414551
1733075406416114200,3.4341142578125,0.6117336750030518,0.729548454284668,-0.010252952575683594
1733075406432827100,3.4508271484375,2.8371009826660156,0.6091418266296387,0.48383426666259766
1733075406449549600,3.467549560546875,2.2767083644866943,0.3916020393371582,0.2507939338684082
1733075406466244000,3.484244140625,-0.37556445598602295,-0.17951583862304688,0.5127167701721191
1733075406482969000,3.500968994140625,-0.33585309982299805,-0.3430442810058594,1.4865350723266602
1733075406499679000,3.517678955078125,0.3918604850769043,1.086782455444336,-0.9866032600402832
1733075406516394000,3.53439404296875,1.2429077625274658,2.6385507583618164,-3.7754085063934326
1733075406533108700,3.551108642578125,3.205549716949463,3.14742374420166,-4.172355651855469
1733075406549826800,3.567826904296875,2.113112688064575,5.459148406982422,-4.223020553588867
1733075406566552800,3.584552734375,0.1830298900604248,5.154719352722168,-2.066859722137451
1733075406583265300,3.601265380859375,1.526256799697876,2.4928598403930664,-0.20468711853027344
1733075406599973400,3.617973388671875,3.3663549423217773,2.334641456604004,0.47119140625
1733075406616686300,3.634686279296875,3.2435595989227295,2.8445687294006348,1.0464107990264893
1733075406633400000,3.651400146484375,0.989564061164856,1.073413372039795,1.752941370010376
1733075406650117600,3.66811767578125,-0.41875970363616943,-0.7823333740234375,1.6631786823272705
1733075406666828800,3.684828857421875,-1.27402663230896,-1.3800067901611328,0.026463985443115234
1733075406683552300,3.70155224609375,-2.885897397994995,-1.0955934524536133,-2.4084360599517822
1733075406700271400,3.718271240234375,-6.37116003036499,0.8430948257446289,-3.0378215312957764
1733075406716993500,3.73499365234375,-9.581793785095215,-0.19813919067382812,-4.21445369720459
1733075406733702400,3.751702392578125,-11.421136856079102,-3.045248031616211,-3.4792580604553223
1733075406750419700,3.768419677734375,-11.428751945495605,-4.406031608581543,-1.3133418560028076
1733075406767134200,3.78513427734375,-9.58347225189209,-4.996951103210449,-0.4749101400375366
1733075406783852500,3.8018525390625,-2.9575419425964355,-5.298975944519043,0.9303288459777832
1733075406800563000,3.81856298828125,5.278813362121582,-7.791054725646973,3.348249673843384
1733075406817280500,3.835280517578125,10.533903121948242,-11.504782676696777,6.041436672210693
1733075406833990400,3.851990478515625,10.546297073364258,-14.764206886291504,7.016656398773193
1733075406850711000,3.8687109375,7.990796089172363,-12.245819091796875,1.8992137908935547
1733075406867425500,3.885425537109375,5.538955211639404,-6.569411277770996,-1.3891358375549316
1733075406884142000,3.90214208984375,2.45324444770813,-2.585287570953369,-1.6096665859222412
1733075406900857600,3.918857666015625,0.8006327152252197,0.039764404296875,-1.3600726127624512
1733075406917555000,3.935554931640625,1.920403003692627,1.7243857383728027,-0.7895252704620361
1733075406934286300,3.952286376953125,3.945659637451172,2.713479995727539,0.391859769821167
1733075406950977300,3.968977294921875,5.725600242614746,3.5607376098632812,0.7444705963134766
1733075406967690500,3.9856904296875,6.938686370849609,4.272602558135986,-0.07215118408203125
1733075406984421400,4.00242138671875,7.512216567993164,4.189423084259033,-1.2011265754699707
1733075407001134800,4.019134765625,7.428079128265381,3.4517979621887207,-2.398611545562744
1733075407017852200,4.03585205078125,2.2328531742095947,2.0122604370117188,-3.8017196655273438
1733075407034566000,4.05256591796875,-2.844134569168091,-0.1531987190246582,-3.9352715015411377
1733075407051295000,4.069294921875,-0.04179954528808594,-1.631075382232666,1.258124828338623
1733075407067984600,4.085984619140625,-1.4968209266662598,-0.9995684623718262,1.936659336090088
1733075407084710000,4.1027099609375,-0.46516847610473633,2.249948024749756,-3.328007698059082
1733075407101426400,4.119426513671875,0.34423089027404785,4.253350257873535,-5.309195518493652
1733075407118143700,4.136143798828125,0.3207850456237793,4.464332580566406,-5.185507774353027
1733075407134857000,4.15285693359375,-0.47179651260375977,3.524219512939453,-2.4839229583740234
1733075407151573000,4.169572998046875,-1.6104626655578613,1.689713478088379,-0.004406929016113281
1733075407168288000,4.1862880859375,-3.863945722579956,-1.2631855010986328,1.3704447746276855
1733075407185038800,4.203038818359375,-7.269874572753906,-5.145159721374512,1.9291462898254395
1733075407201729300,4.219729248046875,-7.819211483001709,-8.226738929748535,2.0549983978271484
1733075407218446000,4.236446044921875,-6.35099983215332,-7.486844062805176,2.1560912132263184
1733075407235142400,4.253142333984375,-4.324440956115723,-3.864771842956543,1.825228214263916
1733075407251878000,4.2698779296875,-1.671940803527832,0.9547557830810547,1.6713151931762695
1733075407268590300,4.28659033203125,0.6373217105865479,2.8052353858947754,1.65739107131958
1733075407285305600,4.3033056640625,3.0554256439208984,0.9423484802246094,1.6307506561279297
1733075407302039000,4.3200390625,6.00937032699585,-2.1497116088867188,0.38568973541259766
1733075407318743300,4.336743408203125,6.411975383758545,-4.319409370422363,-0.7621378898620605
1733075407335449900,4.353449951171875,4.6944169998168945,-3.629916191101074,-0.3335080146789551
1733075407352169200,4.370169189453125,2.820528030395508,-1.107004165649414,-0.5552916526794434
1733075407368883500,4.386883544921875,1.5515153408050537,1.1034460067749023,-1.2108681201934814
1733075407385597000,4.403596923828125,1.6095941066741943,2.2231407165527344,-0.9384021759033203
1733075407402313500,4.4203134765625,2.1999120712280273,1.7661614418029785,-0.017627954483032227
1733075407419016200,4.43701611328125,2.7695846557617188,0.663818359375,0.13958406448364258
1733075407435726600,4.4537265625,2.8599133491516113,0.0966482162475586,-0.9477872848510742
1733075407452447200,4.470447265625,3.2732486724853516,-0.4029569625854492,-0.829277515411377
1733075407469161700,4.48716162109375,3.6154348850250244,-0.8420696258544922,-0.6557855606079102
1733075407485876500,4.50387646484375,3.681002378463745,-1.114410400390625,-0.9465882778167725
1733075407502591700,4.520591796875,3.8787500858306885,-0.5355854034423828,-1.5306732654571533
1733075407519309300,4.537309326171875,3.9580740928649902,0.483154296875,-2.2535390853881836
1733075407536038400,4.554038330078125,3.3687350749969482,0.9825191497802734,-1.9692952632904053
1733075407552751900,4.570751953125,2.2255215644836426,0.4692859649658203,-0.7355401515960693
1733075407569462800,4.587462890625,1.1728429794311523,-0.05752086639404297,-0.1327676773071289
1733075407586168000,4.60416796875,0.40439292788505554,0.053055763244628906,-0.06180310249328613
1733075407602882800,4.6208828125,-0.08756852149963379,0.7262449264526367,-0.008744478225708008
1733075407619600100,4.63760009765625,-0.22016923129558563,1.4833035469055176,0.5679154396057129
1733075407636312600,4.6543125,-0.5864406228065491,2.1743431091308594,0.6690149307250977
1733075407653030100,4.671030029296875,-2.367513418197632,1.5080862045288086,1.4465444087982178
1733075407669747700,4.687747802734375,-5.367171764373779,0.8829660415649414,1.1937229633331299
1733075407686477800,4.704477783203125,-5.735506057739258,0.1836395263671875,0.7774932384490967
1733075407703171800,4.721171875,-2.513944625854492,-0.6464729309082031,0.9213175773620605
1733075407719903200,4.7379033203125,-0.5608226656913757,-0.9812994003295898,-0.30498766899108887
1733075407736616200,4.7546162109375,-0.3946272134780884,-1.0486431121826172,-1.7847847938537598
1733075407753334300,4.771334228515625,-0.44390034675598145,-0.933812141418457,-2.288339614868164
1733075407770054000,4.788053955078125,-0.25124382972717285,-0.5359687805175781,-2.2615911960601807
1733075407786762000,4.804761962890625,0.16698074340820312,-0.09058189392089844,-1.927863359451294
1733075407803478800,4.821478759765625,0.3965111970901489,-0.16404342651367188,-1.28727388381958
1733075407820208000,4.8382080078125,0.26592230796813965,-0.7528743743896484,-1.2736411094665527
1733075407836907800,4.85490771484375,-0.18479442596435547,-1.5898313522338867,-1.9091277122497559
1733075407853625300,4.871625244140625,-0.6831473112106323,-2.485894203186035,-2.381502628326416
1733075407870321700,4.88832177734375,-0.9599369764328003,-3.259718894958496,-2.525050640106201
1733075407887054300,4.905054443359375,-1.174072265625,-4.316499710083008,-1.8685524463653564
1733075407903769900,4.921769775390625,-1.542499303817749,-5.445903778076172,-0.8947000503540039
1733075407920471800,4.938471923828125,-3.845918655395508,-5.865384101867676,0.6753230094909668
1733075407937185500,4.955185546875,-9.758650779724121,-3.9951133728027344,2.6086671352386475
1733075407953900300,4.971900390625,-5.9172468185424805,-1.2628707885742188,3.27781081199646
1733075407970603800,4.988603759765625,-2.279764175415039,0.8912315368652344,3.533046007156372
1733075407987334000,5.005333984375,-0.47118666768074036,1.9780292510986328,3.22013258934021
1733075408004048600,5.022048583984375,2.5229952335357666,1.7397098541259766,1.834526777267456
1733075408020754200,5.038754150390625,4.460691452026367,0.6238679885864258,1.0149714946746826
1733075408037489400,5.055489501953125,4.426705360412598,-0.754547119140625,0.5623538494110107
1733075408054208300,5.072208251953125,3.7908124923706055,-2.130626678466797,0.1929931640625
1733075408070907000,5.088906982421875,3.64296817779541,-3.5379409790039062,1.4239952564239502
1733075408087626200,5.105626220703125,3.9904117584228516,-4.315426826477051,3.193725347518921
1733075408104340500,5.122340576171875,4.673814296722412,-2.8875904083251953,3.222388744354248
1733075408121046000,5.1390458984375,4.393475532531738,-0.7539005279541016,2.633347272872925
1733075408137771300,5.155771240234375,0.325275182723999,0.1839742660522461,0.9778275489807129
1733075408154486800,5.17248681640625,0.39209890365600586,0.8156557083129883,0.016018390655517578
1733075408171221500,5.189221435546875,2.7573776245117188,1.5072579383850098,-0.9134221076965332
1733075408187929300,5.205929443359375,4.230847358703613,1.5977234840393066,-1.7817078828811646
1733075408204644400,5.222644287109375,4.176377296447754,1.0036892890930176,-2.2719128131866455
1733075408221361000,5.23936083984375,3.3613719940185547,0.26224756240844727,-2.2087912559509277
1733075408238076200,5.256076171875,3.4663774967193604,0.2863926887512207,-1.6561932563781738
1733075408254789000,5.2727890625,4.169149398803711,0.9382181167602539,-1.0418775081634521
1733075408271504600,5.289504638671875,4.467411041259766,1.6709685325622559,-0.9964084625244141
1733075408288220200,5.30622021484375,6.231027603149414,4.050613880157471,-4.1599626541137695
1733075408304933000,5.32293310546875,12.877283096313477,4.658576965332031,-4.705768585205078
1733075408321652500,5.339652587890625,2.555842399597168,3.8779218196868896,-1.4932818412780762
1733075408338364700,5.35636474609375,-1.4846577644348145,0.4879007339477539,1.8727765083312988
1733075408355080400,5.37308056640625,-2.089818000793457,0.8217682838439941,2.941732406616211
1733075408371797800,5.3897978515625,-2.7317590713500977,1.0191564559936523,1.8847479820251465
1733075408388510200,5.40651025390625,-5.269213676452637,-0.10152149200439453,-0.18277549743652344
1733075408405208800,5.423208740234375,-8.384353637695312,-3.1761302947998047,-1.4086649417877197
1733075408421933300,5.439933349609375,-8.662933349609375,-4.8813066482543945,-2.4674596786499023
1733075408438645500,5.4566455078125,-7.055718421936035,-4.359591484069824,-0.9069526195526123
1733075408455361800,5.47336181640625,-5.654742240905762,-2.699954032897949,2.631312370300293
1733075408472075500,5.490075439453125,-3.9691364765167236,-0.8353910446166992,5.1071648597717285
1733075408488791800,5.506791748046875,-1.644310474395752,-0.30133533477783203,4.633815288543701
1733075408505522000,5.52352197265625,0.8964695930480957,-1.2901592254638672,3.2372684478759766
1733075408522236000,5.54023583984375,2.9890408515930176,-2.950641632080078,0.4853496551513672
1733075408538949600,5.55694970703125,4.54187536239624,-3.708466053009033,-1.8209400177001953
1733075408555662800,5.573662841796875,6.017195701599121,-2.794428825378418,-2.331806182861328
1733075408572367000,5.5903671875,5.659789562225342,-0.1681680679321289,-1.8429920673370361
1733075408589083600,5.607083740234375,4.463926792144775,2.296842575073242,-0.638789176940918
1733075408605797000,5.623797119140625,3.2237346172332764,3.67935848236084,1.130873680114746
1733075408622505200,5.640505126953125,2.2662830352783203,3.3065433502197266,2.190007209777832
1733075408639228000,5.657227783203125,2.3301234245300293,0.7466278076171875,1.12577486038208
1733075408655947800,5.67394775390625,3.75952410697937,-2.0650625228881836,-0.9790797233581543
1733075408672650000,5.69064990234375,4.30969762802124,-3.1891088485717773,-2.572219133377075
1733075408689387800,5.7073876953125,2.7686688899993896,-2.853771209716797,-3.197011947631836
1733075408706098000,5.724097900390625,0.4623112678527832,-1.7330026626586914,-2.311763048171997
1733075408722823000,5.740822998046875,-0.6016944646835327,-0.3427543640136719,-0.8950247764587402
1733075408739532500,5.757532470703125,-0.044710636138916016,0.6349668502807617,0.211655855178833
1733075408756248800,5.774248779296875,0.7163904905319214,0.8828659057617188,0.778925895690918
1733075408772963000,5.790963134765625,1.0129927396774292,0.9924249649047852,0.5816426277160645
1733075408789679600,5.8076796875,0.452644407749176,1.0746307373046875,0.018517017364501953
1733075408806393300,5.824393310546875,-0.2679351568222046,1.3751802444458008,-0.59977126121521
1733075408823090700,5.841090576171875,-0.4662051498889923,1.7133159637451172,-0.8717288970947266
1733075408839824100,5.85782421875,-0.3250066041946411,1.938797950744629,-1.0533506870269775
1733075408856540700,5.874540771484375,0.08070056140422821,1.8215408325195312,-1.0759172439575195
1733075408873254400,5.89125439453125,0.02080678939819336,1.486846923828125,-0.7264554500579834
1733075408889955000,5.907955078125,-0.05412760376930237,0.9315385818481445,-0.16563081741333008
1733075408906671900,5.924671875,0.16809815168380737,0.4593029022216797,0.3076913356781006
1733075408923388400,5.941388427734375,0.025893867015838623,0.2447185516357422,0.6194107532501221
1733075408940102100,5.95810205078125,-1.2891578674316406,0.20629405975341797,0.7950520515441895
1733075408956818700,5.974818603515625,-4.043664932250977,-0.12778949737548828,0.44872140884399414
1733075408973532700,5.99153271484375,-6.032190322875977,-0.5828580856323242,-0.13752079010009766
1733075408990265000,6.00826513671875,-5.209195137023926,-1.0554838180541992,-0.6851513385772705
1733075409006976300,6.024976318359375,-2.7768802642822266,-1.8002147674560547,-1.1047604084014893
1733075409023692800,6.04169287109375,-0.9703662991523743,-3.0191354751586914,-1.8684139251708984
1733075409040406800,6.05840673828125,-0.6221979856491089,-4.363804817199707,-3.155670404434204
1733075409057107000,6.07510693359375,-0.6132817268371582,-5.690731048583984,-4.8077826499938965
1733075409073824300,6.09182421875,-2.2799816131591797,-6.751446723937988,-5.929885387420654
1733075409090540500,6.10854052734375,-8.424070358276367,-7.22945499420166,-3.692983865737915
1733075409107254500,6.125254638671875,-7.966214179992676,-4.804018974304199,1.186774730682373
1733075409123971300,6.141971435546875,-1.4082112312316895,-2.0075321197509766,3.940821409225464
1733075409140685000,6.15868505859375,3.8582851886749268,-0.8756875991821289,3.9080817699432373
1733075409157418000,6.17541796875,5.192821025848389,-1.1626348495483398,3.218291759490967
1733075409174120000,6.192119873046875,5.154614448547363,-1.7369918823242188,4.672765731811523
1733075409190847700,6.20884765625,5.0009918212890625,-2.0872087478637695,6.924216270446777
1733075409207559200,6.22555908203125,3.927069902420044,-2.0678796768188477,7.083815574645996
1733075409224275700,6.242275634765625,0.9610228538513184,-1.7656373977661133,4.909345626831055
1733075409240989700,6.25898974609375,0.8581461906433105,-0.7174739837646484,3.2179179191589355
1733075409257706800,6.275706787109375,3.441617250442505,0.4124879837036133,2.6757566928863525
1733075409274420200,6.292420166015625,5.796536922454834,1.3042073249816895,1.7335727214813232
1733075409291136500,6.309136474609375,6.79151725769043,1.8904685974121094,0.5264029502868652
1733075409307851000,6.32585107421875,5.775873184204102,1.5314388275146484,-1.3395569324493408
1733075409324567300,6.3425673828125,4.039875030517578,0.4525308609008789,-2.145782947540283
1733075409341281000,6.359281005859375,3.8483924865722656,-0.37824344635009766,-1.986034870147705
1733075409357981000,6.37598095703125,3.8188364505767822,-0.5546226501464844,-2.127680540084839
1733075409374695700,6.39269580078125,4.390592575073242,0.5585741996765137,-2.2444169521331787
1733075409391415000,6.4094150390625,5.18300724029541,1.9710578918457031,-1.8270565271377563
1733075409408129000,6.42612890625,5.634195327758789,3.1992554664611816,-1.8087482452392578
1733075409424838700,6.442838623046875,5.231900691986084,4.23687744140625,-2.0989527702331543
1733075409441558500,6.45955859375,4.442135810852051,4.674339771270752,-2.1198439598083496
1733075409458276000,6.476276123046875,3.662618637084961,4.272369861602783,-1.8310537338256836
1733075409474984200,6.492984130859375,2.14194917678833,3.442446231842041,-1.3241078853607178
1733075409491697700,6.50969775390625,-0.0382533073425293,2.23085880279541,-0.5579626560211182
1733075409508418300,6.526418212890625,-2.2175071239471436,0.23465538024902344,0.4637424945831299
1733075409525154800,6.54315478515625,-5.327357292175293,-2.9524917602539062,1.68178391456604
1733075409541861000,6.559861083984375,-9.621076583862305,-7.438767433166504,2.073821544647217
1733075409558567200,6.576567138671875,-11.78142261505127,-10.819692611694336,2.202805280685425
1733075409575281400,6.593281494140625,-9.03564167022705,-8.12573528289795,3.7936270236968994
1733075409591996200,6.60999609375,-4.748394012451172,-2.08518123626709,3.9199976921081543
1733075409608698400,6.626698486328125,-1.023925542831421,3.7498040199279785,2.2558469772338867
1733075409625412900,6.643412841796875,2.204606294631958,6.2921905517578125,-1.046593189239502
1733075409642146000,6.66014599609375,4.610357284545898,4.516287803649902,-3.4775819778442383
1733075409658872300,6.676872314453125,6.730784893035889,1.0167818069458008,-2.9287445545196533
1733075409675586300,6.69358642578125,7.10866641998291,-2.668463706970215,-0.7753021717071533
1733075409692307500,6.710307373046875,5.375431060791016,-4.600651741027832,0.9143311977386475
1733075409709006800,6.7270068359375,3.1642611026763916,-4.4161272048950195,1.2897839546203613
1733075409725738200,6.74373828125,1.5742560625076294,-2.5978775024414062,1.0809078216552734
1733075409742446800,6.76044677734375,1.0427732467651367,-0.30486011505126953,1.3485653400421143
1733075409759163400,6.777163330078125,1.0019054412841797,0.7965841293334961,1.0164508819580078
1733075409775878000,6.7938779296875,0.8798688650131226,1.2184629440307617,-0.264477014541626
1733075409792594200,6.81059423828125,3.233708620071411,-0.6340618133544922,-0.6813657283782959
1733075409809308200,6.82730810546875,4.124005317687988,-2.3079261779785156,-1.089473009109497
1733075409826029000,6.844029052734375,3.7564682960510254,-2.5545473098754883,-2.0956807136535645
1733075409842739000,6.860739013671875,2.6474709510803223,-1.447591781616211,-2.848402500152588
1733075409859439000,6.877439208984375,1.553257703781128,0.2486553192138672,-2.966616153717041
1733075409876156000,6.894156005859375,1.104239821434021,1.9070310592651367,-2.5232598781585693
1733075409892869000,6.910869140625,1.233015775680542,2.7919921875,-1.0602643489837646
1733075409909590000,6.927590087890625,1.1826883554458618,2.7826290130615234,0.4790153503417969
1733075409926303200,6.94430322265625,1.2317087650299072,2.628732681274414,1.6934099197387695
1733075409943017000,6.961016845703125,1.2659690380096436,2.4719810485839844,2.665036201477051
1733075409959749400,6.977749267578125,0.8673158884048462,2.328707695007324,3.33178448677063
1733075409976454100,6.9944541015625,0.10725460946559906,1.9850740432739258,3.018629312515259
1733075409993177300,7.01117724609375,-0.5721927881240845,1.5361299514770508,1.6023645401000977
1733075410009891600,7.0278916015625,-0.9161796569824219,0.9343595504760742,0.2877378463745117
1733075410026607600,7.044607666015625,-0.9752407073974609,0.3449697494506836,-0.7319159507751465
1733075410043305200,7.06130517578125,-1.0477651357650757,-0.1545400619506836,-1.459242820739746
1733075410060025300,7.078025390625,-1.2831437587738037,-0.531494140625,-1.6523330211639404
1733075410076740900,7.094740966796875,-1.624941349029541,-0.8198766708374023,-1.4257392883300781
1733075410093455400,7.111455322265625,-1.9940650463104248,-1.0481338500976562,-1.1998295783996582
1733075410110169900,7.128169921875,-2.3277652263641357,-1.11370849609375,-0.9645733833312988
1733075410126878200,7.144878173828125,-2.6466825008392334,-1.3378610610961914,-0.8213043212890625
1733075410143616500,7.161616455078125,-2.8390426635742188,-1.6782875061035156,-1.123056173324585
1733075410160329500,7.17832958984375,-2.5209426879882812,-2.251016616821289,-1.735185146331787
1733075410177044200,7.195044189453125,-1.9453067779541016,-3.0757131576538086,-2.325951099395752
1733075410193760800,7.2117607421875,-1.3689600229263306,-4.0653791427612305,-2.548112392425537
1733075410210474200,7.22847412109375,-0.9423205852508545,-5.262411117553711,-2.1936511993408203
1733075410227191000,7.24519091796875,-0.8299156427383423,-6.286233901977539,-1.5044777393341064
1733075410243905000,7.261905029296875,-1.7095093727111816,-5.712152481079102,-1.420122742652893
1733075410260621800,7.278621826171875,-10.824923515319824,-3.5605106353759766,0.7181503772735596
1733075410277335300,7.295335205078125,-8.884119033813477,-0.9623441696166992,3.6718013286590576
1733075410294051800,7.3120517578125,-1.75032377243042,0.5847482681274414,3.8471882343292236
1733075410310766300,7.328766357421875,3.3423449993133545,0.385650634765625,2.9816970825195312
1733075410327482400,7.345482421875,4.8214311599731445,-0.5657691955566406,2.7407867908477783
1733075410344180000,7.362179931640625,4.620633602142334,-1.674544334411621,3.5414528846740723
1733075410360901400,7.3789013671875,4.3148193359375,-2.4825401306152344,4.478204727172852
1733075410377612300,7.3956123046875,4.19011116027832,-2.8544063568115234,4.678671836853027
1733075410394330400,7.412330322265625,4.055863380432129,-2.4478702545166016,4.19337272644043
1733075410411044400,7.42904443359375,3.548492431640625,-1.5689983367919922,3.2356836795806885
1733075410427744800,7.445744873046875,1.1414778232574463,-0.6144771575927734,1.6879336833953857
1733075410444490800,7.46249072265625,1.135199785232544,0.1746082305908203,0.36065673828125
1733075410461204500,7.47920458984375,2.0911571979522705,0.4368858337402344,-1.3983793258666992
1733075410477918200,7.495918212890625,3.5304741859436035,0.4493894577026367,-2.5640974044799805
1733075410494635000,7.512635009765625,4.826130390167236,0.1848278045654297,-3.1709835529327393
1733075410511349200,7.529349365234375,5.105963706970215,-0.03671121597290039,-3.4917190074920654
1733075410528062500,7.5460625,4.941449165344238,0.48205041885375977,-3.289954423904419
1733075410544752000,7.562752197265625,5.059581756591797,1.5517382621765137,-2.4870967864990234
1733075410561482800,7.579482666015625,5.69063663482666,2.6164417266845703,-1.4583103656768799
1733075410578197200,7.596197265625,6.491365432739258,3.81235408782959,-0.5847067832946777
1733075410594913800,7.612913818359375,6.458559989929199,4.9847517013549805,-0.196763277053833
1733075410611624200,7.629624267578125,5.487508773803711,5.6626763343811035,-0.17263317108154297
1733075410628335000,7.646335205078125,4.214057445526123,5.292773246765137,-0.049326419830322266
1733075410645071400,7.6630712890625,2.4169938564300537,4.358663558959961,0.3147761821746826
1733075410661787600,7.67978759765625,-0.12110233306884766,3.140880584716797,0.7236266136169434
1733075410678501600,7.696501708984375,-3.060239315032959,1.162790298461914,1.6086652278900146
1733075410695218000,7.713218017578125,-7.6024169921875,-2.3608474731445312,2.598796844482422
1733075410711932400,7.729932373046875,-11.825159072875977,-7.349145889282227,3.43034291267395
1733075410728649000,7.74664892578125,-12.156639099121094,-10.789472579956055,3.572197437286377
1733075410745363000,7.763363037109375,-8.985029220581055,-8.518237113952637,3.4594998359680176
1733075410762079200,7.780079345703125,-5.009092330932617,-3.27956485748291,2.4364523887634277
1733075410778793500,7.79679345703125,-0.32387590408325195,1.5755815505981445,0.9550943374633789
1733075410795510000,7.813510009765625,3.332285165786743,3.575695514678955,0.7804226875305176
1733075410812223700,7.8302236328125,6.2795867919921875,0.771817684173584,1.4792213439941406
1733075410828923600,7.846923583984375,7.258877277374268,-2.468994140625,1.2136406898498535
1733075410845641500,7.863641357421875,6.7589874267578125,-3.627596855163574,0.34220147132873535
1733075410862357800,7.880357666015625,4.5042405128479,-1.6674261093139648,-0.35442280769348145
1733075410879064300,7.897064208984375,2.468071222305298,1.151094913482666,-1.0631051063537598
1733075410895788000,7.9137880859375,2.127959966659546,2.8363256454467773,-1.318051815032959
1733075410912502500,7.93050244140625,2.1214070320129395,2.469270706176758,-0.6939871311187744
1733075410929214500,7.94721435546875,2.1619038581848145,0.5052404403686523,0.5130789279937744
1733075410945945900,7.96394580078125,2.5780832767486572,-1.5670623779296875,0.8964407444000244
1733075410962662400,7.980662353515625,3.0087075233459473,-2.921420097351074,0.41567230224609375
1733075410979376600,7.997376708984375,3.22393798828125,-2.9659290313720703,-0.6171078681945801
1733075410996093200,8.01409326171875,3.183593273162842,-1.7838191986083984,-1.3561804294586182
1733075411012791800,8.030791748046875,2.9517226219177246,-0.28446388244628906,-1.7505600452423096
1733075411029507000,8.047507080078125,2.555947780609131,0.9330606460571289,-1.8557453155517578
1733075411046224400,8.064224365234375,1.887505292892456,1.7718276977539062,-1.0259230136871338
1733075411062941200,8.080941162109376,0.9194403886795044,1.9566335678100586,-0.17490172386169434
1733075411079643600,8.0976435546875,-0.33704447746276855,1.9043669700622559,0.2767512798309326
1733075411096375000,8.114375,-1.4309704303741455,2.02150821685791,0.5001223087310791
1733075411113085400,8.13108544921875,-2.494279623031616,2.1699600219726562,0.973114013671875
1733075411129795600,8.147795654296875,-2.690678119659424,2.204324722290039,1.2863497734069824
1733075411146529000,8.164529052734375,-2.0212972164154053,2.0054779052734375,0.9498279094696045
1733075411163245800,8.181245849609375,-1.4078885316848755,1.7047834396362305,0.510521411895752
1733075411179959800,8.197959716796875,-0.8727757930755615,1.2364444732666016,0.1350235939025879
1733075411196676000,8.214676025390625,-0.44009482860565186,0.5304841995239258,-0.07906150817871094
1733075411213390000,8.23139013671875,-0.0793805718421936,0.03234577178955078,-0.16907954216003418
1733075411230106000,8.248106201171876,0.12255454063415527,0.03368186950683594,-0.05508017539978027
1733075411246820900,8.26482080078125,-0.03588056564331055,-0.023386001586914062,-0.00884389877319336
1733075411263536600,8.28153662109375,-0.5091558694839478,-0.561614990234375,-0.4624924659729004
1733075411280251100,8.298251220703126,-1.12844717502594,-1.2160615921020508,-1.143958568572998
1733075411296968000,8.314968017578124,-1.688236117362976,-1.633927345275879,-1.6609975099563599
1733075411313665800,8.331665771484374,-1.9916836023330688,-1.8207588195800781,-1.9029388427734375
1733075411330385400,8.348385498046875,-2.0444328784942627,-2.211732864379883,-2.113966703414917
1733075411347099100,8.36509912109375,-2.094738245010376,-2.9869861602783203,-2.241283416748047
1733075411363815700,8.381815673828125,-2.3895692825317383,-4.229761123657227,-1.945195198059082
1733075411380522800,8.398522705078125,-2.871589183807373,-5.687753677368164,-1.2506790161132812
1733075411397246500,8.41524658203125,-7.142298698425293,-6.988286018371582,-0.773529052734375
1733075411413976000,8.43197607421875,-12.103145599365234,-5.632424354553223,0.33703041076660156
1733075411430667800,8.448667724609376,-7.663579940795898,-2.350749969482422,2.282688617706299
1733075411447404500,8.465404541015625,-2.8087525367736816,0.1355304718017578,3.254194736480713
1733075411464120800,8.482120849609375,1.334248423576355,0.4118080139160156,2.3698434829711914
1733075411480815600,8.498815673828124,3.5456697940826416,-1.1260480880737305,1.2718501091003418
1733075411497550800,8.51555078125,3.7994656562805176,-2.742033004760742,1.3006479740142822
1733075411514262000,8.532261962890624,3.418238639831543,-4.3234453201293945,1.4464945793151855
1733075411530968600,8.548968505859374,3.4237418174743652,-4.9680328369140625,1.402519941329956
1733075411547680500,8.565680419921875,3.5819172859191895,-4.071390151977539,1.2366797924041748
1733075411564401000,8.58240087890625,4.10935115814209,-2.6252918243408203,0.9866995811462402
1733075411581113300,8.59911328125,4.950634956359863,-1.1797914505004883,0.4459044933319092
1733075411597829600,8.61582958984375,5.115985870361328,0.29540061950683594,0.6048746109008789
1733075411614546700,8.632546630859375,4.92352294921875,1.5894298553466797,0.19992733001708984
1733075411631265800,8.649265869140624,3.0730743408203125,2.06931734085083,-0.35286474227905273
1733075411647987500,8.665987548828125,0.15228629112243652,1.3818626403808594,-0.8016724586486816
1733075411664704500,8.68270458984375,1.860093355178833,1.307215690612793,-0.8261375427246094
1733075411681417700,8.699417724609376,3.740478992462158,1.2081985473632812,-0.7006254196166992
1733075411698134500,8.716134521484374,4.450420379638672,1.2055587768554688,-0.5338783264160156
1733075411714848500,8.7328486328125,5.150397777557373,1.347221851348877,-0.3739595413208008
1733075411731546000,8.749546142578126,6.407492637634277,1.8297033309936523,-0.2154860496520996
1733075411748278800,8.76627880859375,7.137454509735107,2.644402503967285,-0.14515352249145508
1733075411764995600,8.78299560546875,6.788948059082031,3.7636890411376953,-0.4869544506072998
1733075411781709600,8.79970947265625,5.9576191902160645,4.572077751159668,-0.6087093353271484
1733075411798410000,8.816409912109375,4.702677249908447,4.538097858428955,-0.4073021411895752
1733075411815126800,8.833126708984375,2.463841438293457,3.7697267532348633,0.07979226112365723
1733075411831843300,8.84984326171875,-0.432741641998291,2.519437789916992,0.4947929382324219
1733075411848557800,8.866557861328126,-2.875406503677368,0.658421516418457,0.5102572441101074
1733075411865274400,8.8832744140625,-5.981358051300049,-2.058135986328125,0.798649787902832
1733075411881988000,8.899988037109376,-11.075363159179688,-5.755718231201172,1.0958671569824219
1733075411898720800,8.916720703125,-12.424094200134277,-8.611401557922363,1.0447392463684082
1733075411915432200,8.93343212890625,-8.016324996948242,-6.881242752075195,1.384648323059082
1733075411932148500,8.9501484375,-3.171564817428589,-2.5177526473999023,0.7818393707275391
1733075411948862500,8.966862548828125,1.1598684787750244,1.1519412994384766,-0.46778202056884766
1733075411965578800,8.983578857421875,3.586181402206421,2.0136661529541016,-0.14864873886108398
1733075411982293200,9.000293212890625,4.642854690551758,-0.7144355773925781,1.3696913719177246
1733075411999009800,9.017009765625,4.979764938354492,-4.020575523376465,1.6477446556091309
1733075412015707100,9.03370703125,4.673534870147705,-5.041031837463379,1.1106748580932617
1733075412032427000,9.050427001953125,2.57413911819458,-2.700760841369629,0.7035000324249268
1733075412049141000,9.06714111328125,1.6027811765670776,0.626856803894043,-0.19158077239990234
1733075412065857500,9.083857421875,2.1049885749816895,2.6297740936279297,-0.3268885612487793
1733075412082571300,9.1005712890625,2.5560190677642822,2.3532958030700684,0.35215091705322266
1733075412099287800,9.117287841796875,2.984433174133301,0.8682780265808105,0.8086452484130859
1733075412116018000,9.134017822265625,3.411036968231201,-0.4492197036743164,0.7211470603942871
1733075412132717000,9.150717041015625,3.550165891647339,-1.3208818435668945,0.2899758815765381
1733075412149445600,9.167445556640626,3.3836731910705566,-1.479501724243164,-0.5894849300384521
1733075412166162200,9.184162109375,3.288393497467041,-0.8084335327148438,-1.2728676795959473
1733075412182876400,9.20087646484375,2.9690628051757812,0.09819602966308594,-1.8895092010498047
1733075412199562800,9.217562744140626,2.375930070877075,0.8802318572998047,-2.271880626678467
1733075412216306700,9.234306640625,1.8047767877578735,1.671687126159668,-1.9443285465240479
1733075412233023200,9.251023193359375,1.0942524671554565,1.9987258911132812,-1.0611584186553955
1733075412249737500,9.267737548828125,-0.027284860610961914,1.4523649215698242,-0.3445446491241455
1733075412266454300,9.284454345703125,-1.4935232400894165,0.7803888320922852,0.4435997009277344
1733075412283151600,9.301151611328125,-3.503434419631958,0.5874719619750977,1.356499433517456
1733075412299871500,9.31787158203125,-3.924201011657715,0.7084484100341797,0.9166297912597656
1733075412316585500,9.33458544921875,-2.9855191707611084,0.9087944030761719,0.12397551536560059
1733075412333293800,9.3512939453125,-1.850745677947998,1.133544921875,-0.546497106552124
1733075412350016000,9.36801611328125,-1.2921884059906006,1.322251319885254,-1.1599557399749756
1733075412366732300,9.384732177734374,-0.8877782821655273,1.343414306640625,-1.256835699081421
1733075412383440400,9.4014404296875,-0.5003730058670044,0.9415855407714844,-0.7872929573059082
1733075412400176600,9.4181767578125,-0.40715527534484863,0.5242700576782227,-0.3073127269744873
1733075412416889900,9.434889892578125,-0.4252110719680786,0.05724525451660156,0.4093005657196045
1733075412433607000,9.45160693359375,-0.21899378299713135,-0.6125307083129883,0.7558093070983887
1733075412450321000,9.46832080078125,-0.4066171646118164,-1.342092514038086,0.6398477554321289
1733075412467037400,9.485037353515626,-1.12176513671875,-2.063617706298828,0.0941612720489502
1733075412483745500,9.50174560546875,-1.8892793655395508,-2.5636329650878906,-0.9894311428070068
1733075412500473600,9.5184736328125,-2.4633913040161133,-2.9003076553344727,-2.2414612770080566
1733075412517165800,9.535165771484374,-2.7698776721954346,-3.4624080657958984,-3.102820873260498
1733075412533885700,9.5518857421875,-2.9412269592285156,-4.869902610778809,-3.420687437057495
1733075412550599400,9.568599365234375,-4.489530563354492,-7.027678489685059,-3.8606603145599365
1733075412567315700,9.585315673828125,-8.355430603027344,-8.173566818237305,-6.091682434082031
1733075412584014000,9.60201416015625,-7.054665565490723,-6.117616653442383,-4.912234783172607
1733075412600746800,9.618746826171876,-5.173356533050537,-2.820211410522461,-0.1272280216217041
1733075412617476900,9.635476806640625,-2.056169033050537,-0.43587207794189453,2.709853172302246
1733075412634190000,9.652190185546875,1.6578443050384521,-0.06831741333007812,2.8871166706085205
1733075412650904600,9.668904541015625,3.5266404151916504,-0.9026193618774414,2.3007993698120117
1733075412667607800,9.68560791015625,3.8687925338745117,-2.034952163696289,3.0142953395843506
1733075412684334800,9.7023349609375,3.8080904483795166,-2.788510322570801,4.395303726196289
1733075412701028000,9.719028076171876,3.940857410430908,-2.6931676864624023,5.341170310974121
1733075412717749200,9.735749267578125,3.6100411415100098,-1.443960189819336,4.444836616516113
1733075412734463500,9.75246337890625,2.5408666133880615,-0.512791633605957,3.0006046295166016
1733075412751200000,9.769199951171874,2.103100299835205,0.14138412475585938,2.0130741596221924
1733075412767896000,9.78589599609375,3.419851779937744,1.0699024200439453,1.755011796951294
1733075412784613600,9.802613525390624,4.120659828186035,1.682699203491211,0.8891608715057373
1733075412801330200,9.819330078125,3.5420453548431396,1.5966672897338867,-1.068561315536499
1733075412818044000,9.8360439453125,3.1871743202209473,0.9839267730712891,-2.7033958435058594
1733075412834760400,9.852760498046875,3.8787436485290527,0.4282045364379883,-3.0549304485321045
1733075412851475000,9.869474853515625,4.139718055725098,-0.0850067138671875,-2.895057439804077
1733075412868207000,9.88620703125,4.497777462005615,0.5479507446289062,-2.416938543319702
1733075412884911900,9.902911865234374,5.491384506225586,1.850623607635498,-1.7926201820373535
1733075412901634800,9.919634765625,6.553730010986328,3.0696611404418945,-1.3080635070800781
1733075412918331000,9.936330810546876,7.02452278137207,4.250992774963379,-1.139040231704712
1733075412935065600,9.953065673828124,6.549260139465332,5.166266441345215,-1.040172815322876
1733075412951779000,9.969779052734374,5.603869438171387,5.475015640258789,-0.5809798240661621
1733075412968496000,9.98649609375,4.082380771636963,5.003509998321533,-0.05041003227233887
1733075412985210000,10.003210205078124,1.5237064361572266,3.7846341133117676,0.6197400093078613
1733075413001910500,10.01991064453125,-1.3411552906036377,1.2971916198730469,1.024627447128296
1733075413018627300,10.03662744140625,-6.111801624298096,-2.483536720275879,1.7477903366088867
1733075413035344000,10.05334375,-14.686421394348145,-8.170974731445312,3.0419976711273193
1733075413052058000,10.07005810546875,-16.86231231689453,-13.218633651733398,2.1238749027252197
1733075413068775000,10.08677490234375,-10.401548385620117,-9.840487480163574,2.1383392810821533
1733075413085474800,10.103474853515625,-4.71403694152832,-2.7725448608398438,1.9984502792358398
1733075413102221000,10.120220947265626,0.6611118316650391,3.389080047607422,1.126321792602539
1733075413118932500,10.136932373046875,4.048136234283447,5.4232587814331055,0.8617725372314453
1733075413135630300,10.15363037109375,5.90456485748291,2.03275203704834,1.1584677696228027
1733075413152362800,10.17036279296875,7.1240739822387695,-1.9265670776367188,0.5997204780578613
1733075413169079600,10.18707958984375,7.3889007568359375,-4.333560943603516,0.3958394527435303
1733075413185793500,10.20379345703125,4.045686721801758,-3.686018943786621,0.8747107982635498
1733075413202505500,10.22050537109375,-0.2916839122772217,-1.2537689208984375,-0.5263669490814209
1733075413219229000,10.23722900390625,0.16233277320861816,1.4738435745239258,-1.061568260192871
1733075413235940600,10.253940673828126,1.6446119546890259,2.6957263946533203,-0.5125019550323486
1733075413252638500,10.270638427734376,2.636559009552002,1.835580825805664,0.1218421459197998
1733075413269358300,10.2873583984375,3.5595579147338867,0.10655784606933594,0.7844293117523193
1733075413286072000,10.304072021484375,4.026876926422119,-1.5517959594726562,0.8042929172515869
1733075413302788600,10.32078857421875,3.984924554824829,-2.2926597595214844,-0.13975763320922852
1733075413319503000,10.337503173828125,3.2055840492248535,-1.975046157836914,-1.2234253883361816
1733075413336203800,10.354203857421876,2.284061908721924,-0.9150447845458984,-1.5901401042938232
1733075413352949800,10.37094970703125,1.7029166221618652,0.22113609313964844,-2.1590211391448975
1733075413369663000,10.3876630859375,1.4884251356124878,1.2633953094482422,-2.386659622192383
1733075413386361600,10.404361572265625,1.0099821090698242,1.8455438613891602,-1.6582599878311157
1733075413403093800,10.42109375,0.30396586656570435,1.7689881324768066,-0.7225196361541748
1733075413419807500,10.437807373046875,-0.5753186941146851,1.3740310668945312,-0.10269522666931152
1733075413436524000,10.45452392578125,-1.4241122007369995,1.4397516250610352,0.4535391330718994
1733075413453238500,10.471238525390625,-2.155574321746826,1.6960926055908203,1.267176628112793
1733075413469955300,10.487955322265625,-2.637645721435547,2.0841383934020996,1.6897566318511963
1733075413486668800,10.504668701171875,-2.767970085144043,2.1672420501708984,1.0557258129119873
1733075413503369000,10.521368896484375,-2.5431814193725586,1.7334108352661133,0.40250635147094727
1733075413520086500,10.53808642578125,-2.1119377613067627,1.1240215301513672,-0.062079429626464844
1733075413536803000,10.554802978515625,-1.489497184753418,0.6036586761474609,-0.4652574062347412
1733075413553516800,10.571516845703124,-1.0695924758911133,0.18938636779785156,-0.6922461986541748
1733075413570233000,10.588233154296875,-1.0385223627090454,-0.19784259796142578,-0.8146452903747559
1733075413586934000,10.60493408203125,-1.1102946996688843,-0.6586580276489258,-0.8742084503173828
1733075413603680800,10.6216806640625,-1.249932885169983,-1.0929527282714844,-1.0003540515899658
1733075413620391200,10.63839111328125,-1.3639576435089111,-1.5740728378295898,-1.0766055583953857
1733075413637107700,10.655107666015626,-1.7009068727493286,-2.058079719543457,-1.006988763809204
1733075413653822000,10.671822021484376,-2.005328893661499,-2.3252220153808594,-1.1145219802856445
1733075413670538000,10.6885380859375,-2.0034337043762207,-2.6158599853515625,-1.633860468864441
1733075413687252700,10.705252685546874,-1.8564338684082031,-3.237977981567383,-2.2269506454467773
1733075413703968800,10.72196875,-1.7615838050842285,-4.763051986694336,-2.377408027648926
1733075413720683000,10.73868310546875,-1.9839205741882324,-7.02370548248291,-2.2040352821350098
1733075413737383700,10.7553837890625,-2.35551118850708,-8.37001895904541,-2.926780939102173
1733075413754100200,10.772100341796875,-11.25517749786377,-7.136562347412109,-5.521988868713379
1733075413770817000,10.788817138671876,-13.606724739074707,-4.603771209716797,-2.4192628860473633
1733075413787524000,10.805524169921876,-5.495488166809082,-1.4412240982055664,1.4883549213409424
1733075413804247800,10.822247802734376,0.9793366193771362,0.3288583755493164,2.720510721206665
1733075413820961500,10.83896142578125,3.646885633468628,0.4414052963256836,1.9172966480255127
1733075413837671200,10.855671142578124,4.0403523445129395,-0.19744300842285156,2.6436195373535156
1733075413854375000,10.872375,4.092958450317383,-1.5363006591796875,4.812960147857666
1733075413871122000,10.889121826171875,4.269067287445068,-3.2714624404907227,5.828494071960449
1733075413887836200,10.905836181640625,4.593534469604492,-4.378251075744629,5.3964080810546875
1733075413904552200,10.92255224609375,4.429359436035156,-3.922898292541504,4.213109016418457
1733075413921266700,10.9392666015625,2.5008435249328613,-2.6602067947387695,3.8257079124450684
1733075413937983500,10.9559833984375,0.8183414936065674,-1.4813365936279297,3.0404434204101562
1733075413954697200,10.972697265625,1.6508731842041016,0.3627309799194336,1.7797300815582275
1733075413971413800,10.989413818359376,3.1744401454925537,1.6111173629760742,0.052370548248291016
1733075413988112000,11.00611181640625,4.131014347076416,2.0173349380493164,-1.573401689529419
1733075414004831200,11.022831298828125,5.269942283630371,1.8937559127807617,-2.6885223388671875
1733075414021545200,11.039545166015625,5.514174461364746,1.232004165649414,-3.1334800720214844
1733075414038253800,11.05625390625,5.450930595397949,0.9455595016479492,-3.5096547603607178
1733075414054976000,11.07297607421875,5.330404758453369,1.9793744087219238,-3.215892791748047
1733075414071692300,11.0896923828125,5.889949798583984,3.384681224822998,-2.2334723472595215
1733075414088424000,11.106423828125,6.811968803405762,4.8350677490234375,-1.5953093767166138
1733075414105136000,11.12313623046875,7.160006999969482,6.149103164672852,-1.6821987628936768
1733075414121850400,11.139850341796874,6.4867024421691895,7.083099842071533,-1.6627744436264038
1733075414138559700,11.156559814453125,5.069520950317383,7.043585300445557,-1.1045045852661133
1733075414155288000,11.1732880859375,2.621596097946167,6.1129536628723145,-0.09823942184448242
1733075414171997400,11.18999755859375,-1.7668898105621338,3.8049583435058594,1.0592763423919678
1733075414188711700,11.206711669921875,-8.130020141601562,-0.9593896865844727,1.6789181232452393
1733075414205428000,11.223427978515625,-15.735186576843262,-8.331393241882324,2.8366539478302
1733075414222125800,11.240125732421875,-15.889135360717773,-15.101192474365234,3.1015853881835938
1733075414238845400,11.256845458984374,-8.2999267578125,-12.026208877563477,3.3535733222961426
1733075414255559700,11.2735595703125,-3.6280291080474854,-4.601414680480957,3.6140546798706055
1733075414272276200,11.290276123046874,-0.35149669647216797,1.6471009254455566,2.4074535369873047
1733075414288990000,11.306989990234374,1.9350900650024414,4.430132865905762,2.7718329429626465
1733075414305706500,11.32370654296875,4.20634126663208,1.9410452842712402,4.093441009521484
1733075414322430700,11.3404306640625,4.769780158996582,-2.370427131652832,2.9866814613342285
1733075414339143000,11.357142822265626,6.657694339752197,-3.498124122619629,0.5275468826293945
1733075414355864600,11.373864501953125,6.976062774658203,-1.3238725662231445,-0.22771477699279785
1733075414372580900,11.390580810546876,5.1271843910217285,1.0467615127563477,-1.060180425643921
1733075414389300000,11.407300048828125,3.444221258163452,2.0107507705688477,-2.159073829650879
1733075414406007000,11.424007080078125,2.5095043182373047,1.3369884490966797,-2.099870204925537
1733075414422726000,11.440725830078126,2.598942518234253,-0.5677881240844727,-0.5485258102416992
1733075414439442200,11.457442138671874,3.00581693649292,-2.4024620056152344,0.48020339012145996
1733075414456156400,11.474156494140624,2.9957823753356934,-3.008831024169922,-0.1620955467224121
1733075414472873200,11.490873291015625,3.017887592315674,-2.416378974914551,-1.4636685848236084
1733075414489570600,11.507570556640625,2.9325010776519775,-1.2496118545532227,-1.8933658599853516
1733075414506290400,11.52429052734375,2.641055107116699,-0.09746837615966797,-1.9489554166793823
1733075414523004400,11.54100439453125,2.2486701011657715,1.0461750030517578,-2.1527905464172363
1733075414539712800,11.557712646484376,1.6796162128448486,1.9350600242614746,-1.7808256149291992
1733075414556435000,11.57443505859375,0.8978497982025146,2.2450037002563477,-0.8344581127166748
1733075414573151500,11.5911513671875,-0.21078068017959595,1.7713441848754883,0.025780916213989258
1733075414589860400,11.6078603515625,-2.720646381378174,1.2821922302246094,0.679668664932251
1733075414606595600,11.624595703125,-6.386294841766357,1.3856306076049805,1.5888242721557617
1733075414623309300,11.641309326171875,-5.052384376525879,1.4429693222045898,0.8582487106323242
1733075414640025600,11.658025634765625,-2.445892810821533,1.4434814453125,0.5205252170562744
1733075414656740000,11.674739990234375,-1.4237468242645264,1.598006248474121,-0.04261207580566406
1733075414673456600,11.69145654296875,-1.3826736211776733,1.545741081237793,-0.5367922782897949
1733075414690170600,11.708170654296875,-1.4081021547317505,1.1930088996887207,-0.6609671115875244
1733075414706871000,11.72487109375,-1.1480355262756348,0.8228912353515625,-0.5201478004455566
1733075414723588400,11.74158837890625,-0.740057647228241,0.5061502456665039,-0.3278989791870117
1733075414740305000,11.758304931640625,-0.6111795902252197,0.17537307739257812,-0.21960902214050293
1733075414757018400,11.775018310546875,-0.8093975782394409,-0.2740898132324219,-0.4818074703216553
1733075414773735200,11.791735107421875,-1.2105847597122192,-0.9058732986450195,-0.9296116828918457
1733075414790435800,11.808435791015626,-1.9064431190490723,-1.584177017211914,-1.4096336364746094
1733075414807181800,11.825181884765625,-2.463393211364746,-2.036212921142578,-1.8491460084915161
1733075414823893200,11.841893310546874,-2.682680368423462,-2.473067283630371,-2.275137424468994
1733075414840609500,11.858609619140625,-2.5276410579681396,-3.267242431640625,-2.5886473655700684
1733075414857319200,11.875319091796875,-2.2067840099334717,-4.412623405456543,-2.7187154293060303
1733075414874045200,11.892045166015626,-2.3570733070373535,-5.951414108276367,-2.629622459411621
1733075414890754300,11.90875439453125,-8.3687744140625,-7.307154655456543,-4.201357364654541
1733075414907470800,11.925470947265625,-11.726228713989258,-6.5736188888549805,-3.6506104469299316
1733075414924185300,11.942185302734375,-6.41111946105957,-4.153548240661621,-0.3588135242462158
1733075414940901600,11.958901611328125,-2.490706443786621,-2.043032646179199,2.1776111125946045
1733075414957615600,11.97561572265625,0.868926465511322,-2.078664779663086,1.883387565612793
1733075414974316300,11.99231640625,3.0537302494049072,-3.266132354736328,0.9482007026672363
1733075414991033300,12.009033447265624,3.4130711555480957,-3.9754562377929688,2.059192657470703
1733075415007750000,12.02575,3.596282482147217,-4.170509338378906,3.693852424621582
1733075415024463600,12.042463623046874,3.8599328994750977,-3.615833282470703,4.844257354736328
1733075415041156600,12.059156494140625,3.621976375579834,-2.3149518966674805,4.709722995758057
1733075415057894400,12.075894287109374,3.6876280307769775,-0.7287702560424805,3.665689468383789
1733075415074626800,12.092626708984374,4.4755048751831055,0.5941057205200195,3.124833106994629
1733075415091319600,12.109319580078125,4.182657241821289,1.825826644897461,2.149808168411255
1733075415108054500,12.126054443359376,2.785496711730957,2.7006301879882812,0.7530176639556885
1733075415124769000,12.14276904296875,1.0738229751586914,2.6289496421813965,-0.9653770923614502
1733075415141485600,12.159485595703124,1.582765817642212,2.149454116821289,-1.95231294631958
1733075415158199300,12.17619921875,3.5180556774139404,1.7076916694641113,-2.4341509342193604
1733075415174916000,12.192916015625,4.66372013092041,1.038421630859375,-3.0118069648742676
1733075415191594500,12.209594482421876,5.051539421081543,0.40518760681152344,-3.134629011154175
1733075415208337400,12.22633740234375,5.230005741119385,0.6693077087402344,-2.536332368850708
1733075415225045200,12.243045166015625,5.379620552062988,2.052736282348633,-1.6515904664993286
1733075415241757700,12.2597578125,5.4735493659973145,3.645181179046631,-1.2306673526763916
1733075415258465000,12.276465087890625,5.140480995178223,5.139884948730469,-1.1800191402435303
1733075415275198700,12.29319873046875,4.374248504638672,6.170577049255371,-1.0404362678527832
1733075415291903200,12.3099033203125,3.2992167472839355,6.293406963348389,-0.8694734573364258
1733075415308638500,12.326638427734375,1.1779999732971191,5.302337646484375,-0.45725011825561523
1733075415325348600,12.3433486328125,-1.4127211570739746,3.067714214324951,0.1203463077545166
1733075415342073600,12.360073486328124,-4.431118011474609,-0.8252458572387695,0.08563685417175293
1733075415358783200,12.376783203125,-11.768189430236816,-6.777121543884277,0.5290007591247559
1733075415375499800,12.393499755859375,-16.877668380737305,-13.462296485900879,1.6734676361083984
1733075415392209000,12.410208984375,-10.427763938903809,-11.733765602111816,2.5734848976135254
1733075415408935200,12.42693505859375,-3.655733108520508,-4.8946638107299805,2.693718433380127
1733075415425644300,12.443644287109375,1.567786455154419,0.9758443832397461,1.7343978881835938
1733075415442361000,12.460361083984376,4.673908233642578,2.9303932189941406,2.2052173614501953
1733075415459075000,12.477074951171875,5.825276851654053,0.20318317413330078,2.9540047645568848
1733075415475775200,12.493775146484374,6.119388103485107,-2.642523765563965,1.2886061668395996
1733075415492492300,12.5104921875,5.727323055267334,-2.640833854675293,1.257373571395874
1733075415509199400,12.527199462890625,3.5743050575256348,-0.6173543930053711,0.8373620510101318
1733075415525923300,12.54392333984375,1.822454810142517,1.2945537567138672,-0.8474979400634766
1733075415542624300,12.560624267578126,1.786697268486023,1.9695520401000977,-1.569709300994873
1733075415559353900,12.577353759765625,2.3475217819213867,1.1813321113586426,-0.8952960968017578
1733075415576082400,12.59408251953125,2.589024543762207,-0.2523069381713867,-0.20237255096435547
1733075415592802000,12.610802001953125,2.8476810455322266,-1.333989143371582,-0.25908851623535156
1733075415609514500,12.627514404296875,3.1280956268310547,-1.7538890838623047,-0.9376857280731201
1733075415626228200,12.644228271484375,3.4165425300598145,-1.7324552536010742,-1.5248425006866455
1733075415642944500,12.660944580078125,3.076786994934082,-0.9468116760253906,-1.7496626377105713
1733075415659659000,12.677658935546875,2.5565946102142334,0.3121204376220703,-2.123701810836792
1733075415676375800,12.694375732421875,1.9879182577133179,1.3576607704162598,-2.1711788177490234
1733075415693089300,12.71108935546875,1.2642219066619873,1.8342719078063965,-1.760864496231079
1733075415709806000,12.72780615234375,0.11495373398065567,1.6267333030700684,-0.9035837650299072
1733075415726520600,12.7445205078125,-1.7711577415466309,1.145918846130371,0.18155288696289062
1733075415743220500,12.761220458984376,-4.889995574951172,0.9912328720092773,1.568864345550537
1733075415759937500,12.7779375,-4.565959930419922,0.9369754791259766,1.3172261714935303
1733075415776654300,12.794654296875,-2.731496810913086,1.0187082290649414,0.8167641162872314
1733075415793364700,12.81136474609375,-1.5341717004776,1.4788694381713867,0.2563934326171875
1733075415810089000,12.8280888671875,-1.3298535346984863,1.6567373275756836,-0.1914830207824707
1733075415826798800,12.844798828125,-1.0892077684402466,1.5564899444580078,-0.5048069953918457
1733075415843524400,12.8615244140625,-0.9745622873306274,1.2250747680664062,-0.6145033836364746
1733075415860243000,12.878242919921876,-1.091089129447937,0.8340044021606445,-0.5948104858398438
1733075415876959500,12.89495947265625,-1.1085973978042603,0.4412498474121094,-0.46886563301086426
1733075415893673200,12.911673095703126,-0.9310977458953857,-0.11221504211425781,-0.20943784713745117
1733075415910390000,12.92839013671875,-0.7304775714874268,-0.8959541320800781,0.04714488983154297
1733075415927104300,12.945104248046874,-0.8126401901245117,-1.7529888153076172,0.04167914390563965
1733075415943821000,12.961821044921875,-1.363601803779602,-2.4356603622436523,-0.6980180740356445
1733075415960518400,12.978518310546875,-2.0474114418029785,-2.9891624450683594,-1.8951630592346191
1733075415977222400,12.995222412109374,-2.7007598876953125,-3.676136016845703,-2.9236767292022705
1733075415993952300,13.0119521484375,-3.288480520248413,-4.873779296875,-3.305523157119751
1733075416010668800,13.028668701171876,-4.943612575531006,-6.857941627502441,-3.7641351222991943
1733075416027382800,13.0453828125,-9.930191993713379,-8.7679443359375,-6.215170860290527
1733075416044082700,13.062082763671874,-7.675548076629639,-8.255714416503906,-6.816936016082764
1733075416060830500,13.07883056640625,-5.028657913208008,-5.163663864135742,-2.450864315032959
1733075416077543400,13.09554345703125,-2.824003219604492,-1.614090919494629,1.5007076263427734
1733075416094257200,13.112257080078125,-0.11812502145767212,0.11294364929199219,3.6469342708587646
1733075416110974000,13.128973876953125,2.2676424980163574,-0.020613670349121094,3.018153190612793
1733075416127688200,13.145688232421875,3.450441598892212,-0.910853385925293,2.993347406387329
1733075416144404700,13.16240478515625,3.9601521492004395,-2.011906623840332,4.752275466918945
1733075416161118500,13.179118408203125,4.2511186599731445,-3.11087703704834,6.323692321777344
1733075416177835000,13.1958349609375,3.9517133235931396,-2.6859617233276367,5.830231666564941
1733075416194549500,13.212549560546876,1.4525625705718994,-1.3033943176269531,3.307685613632202
1733075416211266000,13.22926611328125,-0.6534228324890137,-0.3447551727294922,1.429492473602295
1733075416227947800,13.24594775390625,1.178769826889038,0.9279880523681641,1.3957915306091309
1733075416244683300,13.262683349609375,2.7073957920074463,1.73128080368042,0.796292781829834
1733075416261397500,13.2793974609375,3.877124786376953,1.8845605850219727,-0.9471161365509033
1733075416278114000,13.296114013671875,3.947593927383423,1.3096928596496582,-2.758720636367798
1733075416294814200,13.312814208984374,4.387289524078369,0.6215696334838867,-3.0215606689453125
1733075416311544600,13.329544677734376,4.028707027435303,-0.11418819427490234,-2.5719661712646484
1733075416328275200,13.346275146484375,3.139627695083618,-0.18219470977783203,-2.0665442943573
1733075416344988200,13.36298828125,3.139831304550171,1.0598397254943848,-1.5507845878601074
1733075416361702100,13.3797021484375,4.866100311279297,2.2751574516296387,-0.8896944522857666
1733075416378419000,13.3964189453125,6.600171089172363,3.5690460205078125,-0.46180057525634766
1733075416395133400,13.413133544921875,6.946966171264648,5.06898307800293,-0.4172697067260742
1733075416411850000,13.42985009765625,6.3014373779296875,6.169541835784912,-0.520453691482544
1733075416428563700,13.446563720703125,5.4327311515808105,6.277753829956055,-0.27248692512512207
1733075416445280000,13.463280029296875,3.7979588508605957,5.433836936950684,0.014150857925415039
1733075416461978000,13.47997802734375,1.095167875289917,3.8613691329956055,0.38681864738464355
1733075416478698000,13.496697998046875,-1.8622932434082031,1.719101905822754,0.5241069793701172
1733075416495412000,13.513411865234374,-5.314038276672363,-1.3005075454711914,0.8183953762054443
1733075416512128500,13.53012841796875,-12.062743186950684,-5.862554550170898,1.8547112941741943
1733075416528842800,13.5468427734375,-17.747467041015625,-11.855765342712402,1.5607194900512695
1733075416545543700,13.563543701171875,-13.50872802734375,-11.587017059326172,1.3797764778137207
1733075416562289400,13.580289306640625,-7.375218391418457,-5.187570571899414,1.7007956504821777
1733075416579003000,13.5970029296875,-1.7294528484344482,0.7360658645629883,1.4366803169250488
1733075416595717400,13.61371728515625,2.7167036533355713,2.762454032897949,2.0979857444763184
1733075416612433700,13.63043359375,6.496387481689453,0.010744094848632812,2.733992576599121
1733075416629148000,13.64714794921875,9.108970642089844,-2.6986122131347656,0.9926135540008545
1733075416645864000,13.663864013671875,8.64348316192627,-2.25423526763916,1.8673923015594482
1733075416662578700,13.68057861328125,5.069913387298584,0.03875541687011719,1.8995051383972168
1733075416679295200,13.697295166015625,1.1001837253570557,1.7615838050842285,0.23653006553649902
1733075416696004400,13.71400439453125,-0.770163893699646,1.8605828285217285,-0.32489776611328125
1733075416712708900,13.730708984375,1.2687127590179443,0.10007476806640625,0.27874159812927246
1733075416729426700,13.7474267578125,2.63791823387146,-1.413656234741211,0.6857891082763672
1733075416746143200,13.764143310546874,3.0466041564941406,-1.9410676956176758,0.04535484313964844
1733075416762857200,13.780857177734376,3.3264007568359375,-1.6896657943725586,-1.1038939952850342
1733075416779573500,13.797573486328124,3.5405712127685547,-0.9415044784545898,-2.082200050354004
1733075416796272400,13.8142724609375,3.2694616317749023,-0.3161172866821289,-2.774158000946045
1733075416813021200,13.831021240234374,2.768568992614746,0.3574533462524414,-2.955954074859619
1733075416829731600,13.847731689453125,2.041821241378784,1.2793769836425781,-2.896021604537964
1733075416846448400,13.864448486328126,1.2550791501998901,2.075087547302246,-1.92288339138031
1733075416863162600,13.88116259765625,0.4436850845813751,2.1150436401367188,-0.770103931427002
1733075416879879400,13.89787939453125,-0.6191664934158325,1.5442829132080078,-0.1765270233154297
1733075416896574200,13.91457421875,-1.4632303714752197,0.949772834777832,0.24468278884887695
1733075416913309400,13.931309326171874,-2.0880119800567627,0.7136898040771484,0.6609382629394531
1733075416930023700,13.948023681640626,-2.9491324424743652,0.8902101516723633,1.240630865097046
1733075416946724400,13.964724365234375,-3.4776926040649414,1.3291902542114258,1.3545989990234375
1733075416963441200,13.981441162109375,-3.2055654525756836,1.4217925071716309,0.8213233947753906
1733075416980151800,13.99815185546875,-2.9014925956726074,1.4212679862976074,0.14732074737548828
1733075416996877600,14.014877685546875,-2.421391487121582,1.290473461151123,-0.15599298477172852
1733075417013588500,14.03158837890625,-1.724074125289917,0.7796907424926758,-0.017560720443725586
1733075417030302500,14.048302490234375,-1.1574831008911133,-0.23394107818603516,0.2460155487060547
1733075417047026000,14.06502587890625,-1.1158381700515747,-1.1094951629638672,0.04828071594238281
1733075417063746300,14.081746337890625,-1.440753698348999,-1.7590208053588867,-0.4790620803833008
1733075417080463000,14.098463134765625,-2.1268460750579834,-2.3847570419311523,-0.8938965797424316
1733075417097176600,14.115176513671875,-2.733733892440796,-2.7164392471313477,-1.438990592956543
1733075417113893400,14.131893310546875,-2.951200485229492,-2.7284555435180664,-2.152970314025879
1733075417130607600,14.148607666015625,-2.7785682678222656,-2.621889114379883,-2.838193416595459
1733075417147324400,14.165324462890625,-2.5357494354248047,-3.049701690673828,-3.3236372470855713
1733075417164053200,14.18205322265625,-2.783390760421753,-4.53712272644043,-3.084726095199585
1733075417180754700,14.198754638671875,-4.142353057861328,-6.596752166748047,-2.8272109031677246
1733075417197452500,14.21545263671875,-11.672454833984375,-7.590198516845703,-3.088808536529541
1733075417214172700,14.232172607421875,-9.404887199401855,-5.0015869140625,-0.08334684371948242
1733075417230882600,14.248882568359376,-4.585626602172852,-1.8015832901000977,2.4993512630462646
1733075417247598800,14.265598876953124,-0.5992642641067505,0.17258358001708984,3.373246431350708
1733075417264317200,14.282317138671875,2.6927130222320557,0.16544437408447266,2.758779525756836
1733075417281034000,14.299033935546875,3.656010627746582,-1.087122917175293,2.4648945331573486
1733075417297742000,14.3157421875,3.233316421508789,-2.912203788757324,2.558164119720459
1733075417314477300,14.332477294921874,3.098886013031006,-4.416813850402832,2.6855030059814453
1733075417331191800,14.34919189453125,3.4543542861938477,-4.725655555725098,2.8121554851531982
1733075417347908600,14.36590869140625,3.7145698070526123,-3.827486991882324,2.8872292041778564
1733075417364622000,14.3826220703125,4.703716278076172,-2.248769760131836,2.9473319053649902
1733075417381339000,14.3993388671875,4.660977363586426,-0.33226490020751953,1.791489601135254
1733075417398053000,14.41605322265625,4.256731986999512,1.6752848625183105,1.1438267230987549
1733075417414770000,14.43277001953125,0.8602077960968018,2.275508403778076,-0.5302746295928955
1733075417431483400,14.4494833984375,-0.21445989608764648,2.169201374053955,-1.491014003753662
1733075417448183800,14.466183837890625,2.1435346603393555,2.2717161178588867,-1.6781888008117676
1733075417464901400,14.4829013671875,4.004821300506592,2.0479846000671387,-2.1112191677093506
1733075417481618000,14.499617919921874,4.519208908081055,1.480931282043457,-2.601579427719116
1733075417498324200,14.51632421875,4.781733989715576,1.67750883102417,-2.6353774070739746
1733075417515048400,14.53304833984375,5.664890766143799,2.367626190185547,-2.0899553298950195
1733075417531762700,14.5497626953125,6.455864429473877,3.2072577476501465,-1.5475255250930786
1733075417548493800,14.566493896484374,6.50712776184082,4.284205436706543,-1.268027663230896
1733075417565206300,14.583206298828125,5.745935440063477,5.2375946044921875,-0.950646162033081
1733075417581922800,14.5999228515625,4.726463794708252,5.382465362548828,-0.5667684078216553
1733075417598637300,14.61663720703125,3.219585657119751,4.597875595092773,-0.21751952171325684
1733075417615353900,14.633353759765624,0.32981061935424805,2.756303310394287,0.6129641532897949
1733075417632078000,14.650078125,-3.70102596282959,-0.6928377151489258,0.8721580505371094
1733075417648784400,14.666784423828124,-9.603702545166016,-5.8773040771484375,1.092926025390625
1733075417665498600,14.68349853515625,-15.726550102233887,-11.01888656616211,3.2041306495666504
1733075417682199000,14.700198974609375,-15.785861015319824,-10.794124603271484,4.116119861602783
1733075417698915600,14.71691552734375,-8.524724960327148,-5.828749656677246,2.948359966278076
1733075417715632400,14.73363232421875,-2.171666383743286,-0.26941394805908203,0.4700174331665039
1733075417732347000,14.750346923828126,2.8708412647247314,3.91428279876709,-2.234229803085327
1733075417749047300,14.76704736328125,5.227750778198242,4.942094326019287,-2.6626338958740234
1733075417765777200,14.783777099609376,6.138294219970703,1.71502685546875,-0.9544916152954102
1733075417782510300,14.80051025390625,6.424921035766602,-2.547764778137207,0.19809412956237793
1733075417799221200,14.81722119140625,5.377073287963867,-4.6746063232421875,1.580094575881958
1733075417815937800,14.833937744140625,2.0477049350738525,-3.3133726119995117,1.4337952136993408
1733075417832651500,14.850651611328125,-2.889004707336426,-0.9160985946655273,0.4890120029449463
1733075417849368600,14.86736865234375,-2.645481586456299,1.5991125106811523,1.0119891166687012
1733075417866082800,14.884082763671875,0.5273197889328003,1.7415404319763184,0.8244438171386719
1733075417882785000,14.900784912109375,2.4580771923065186,1.1010723114013672,0.5361690521240234
1733075417899513300,14.917513427734375,4.385616779327393,-0.3010263442993164,0.17371916770935059
1733075417916230000,14.93422998046875,4.952178001403809,-1.392146110534668,-0.8467226028442383
1733075417932928000,14.950927978515624,4.431820869445801,-1.687821388244629,-1.742260456085205
1733075417949647600,14.967647705078125,3.167475700378418,-1.220712661743164,-2.433979034423828
1733075417966361300,14.984361328125,2.048055648803711,-0.09020423889160156,-2.8218328952789307
1733075417983078000,15.001077880859375,1.388389229774475,0.9969501495361328,-2.9075794219970703
1733075417999785000,15.017784912109375,0.7927839756011963,1.5287628173828125,-2.075202465057373
1733075418016509000,15.034509033203125,0.33038437366485596,1.6798696517944336,-1.006042718887329
1733075418033238300,15.05123828125,-0.17328977584838867,1.4834232330322266,-0.3542966842651367
1733075418049930200,15.06793017578125,-0.579751193523407,1.126922607421875,0.2547438144683838
1733075418066666800,15.084666748046875,-1.2574115991592407,1.0499992370605469,1.0463287830352783
1733075418083383600,15.101383544921875,-2.3406786918640137,1.3777527809143066,1.62986421585083
1733075418100097000,15.118096923828125,-3.042989730834961,1.435502529144287,1.628631591796875
1733075418116813800,15.134813720703125,-3.355067729949951,1.1449823379516602,0.9448947906494141
1733075418133528300,15.1515283203125,-3.2309188842773438,0.9913225173950195,0.2018887996673584
1733075418150244900,15.168244873046875,-2.8105075359344482,0.8587436676025391,-0.20186424255371094
1733075418166942000,15.18494189453125,-2.394334077835083,0.6513862609863281,-0.39480161666870117
1733075418183662000,15.201662109375,-1.9886215925216675,0.0323486328125,-0.39443373680114746
1733075418200376300,15.218376220703124,-1.7630224227905273,-0.8750896453857422,-0.43146538734436035
1733075418217092900,15.2350927734375,-1.7547352313995361,-1.6349077224731445,-0.72149658203125
1733075418233806800,15.251806884765625,-2.130436897277832,-2.1522388458251953,-1.114013910293579
1733075418250507800,15.2685078125,-2.872131586074829,-2.6446313858032227,-1.6893668174743652
1733075418267254000,15.28525390625,-3.7874767780303955,-3.1529064178466797,-2.5212976932525635
1733075418283967700,15.3019677734375,-6.4201226234436035,-3.7838430404663086,-4.040541648864746
1733075418300681200,15.31868115234375,-7.327882766723633,-5.140490531921387,-4.555474758148193
1733075418317398300,15.335398193359374,-6.316647529602051,-6.660150527954102,-5.193035125732422
1733075418334112300,15.3521123046875,-7.454372406005859,-7.1901445388793945,-3.2858312129974365
1733075418350805000,15.368804931640625,-6.243072986602783,-4.537252426147461,-0.26131582260131836
1733075418367542800,15.385542724609374,-1.89028000831604,-1.9598579406738281,1.208420991897583
1733075418384259300,15.40225927734375,1.5628879070281982,-0.776947021484375,1.5048243999481201
1733075418400973800,15.418973876953125,2.8133270740509033,-0.868067741394043,1.6346395015716553
1733075418417690400,15.4356904296875,2.9623847007751465,-2.016338348388672,2.2753238677978516
1733075418434387700,15.4523876953125,2.8043792247772217,-3.736328125,2.228534460067749
1733075418451089400,15.46908935546875,3.1631603240966797,-4.607088088989258,1.942368984222412
1733075418467825700,15.48582568359375,3.596851348876953,-3.988758087158203,2.417799711227417
1733075418484538600,15.50253857421875,3.40885329246521,-2.4671831130981445,2.8176019191741943
1733075418501252400,15.51925244140625,3.6340253353118896,-0.8580198287963867,2.7629172801971436
1733075418517969200,15.53596923828125,3.731288433074951,0.7429790496826172,1.8271853923797607
1733075418534699300,15.55269921875,2.3823776245117188,2.2470531463623047,0.650442361831665
1733075418551413200,15.569413330078126,1.407400369644165,3.0191287994384766,-0.08520960807800293
1733075418568127000,15.586126953125,1.0057647228240967,3.0721139907836914,-0.662677526473999
1733075418584843500,15.602843505859376,2.0743353366851807,2.758756637573242,-1.1259255409240723
1733075418601557800,15.619557861328126,3.51326847076416,2.0785932540893555,-1.2258484363555908
1733075418618274600,15.636274658203124,3.9513816833496094,0.9780416488647461,-0.9253466129302979
1733075418634979600,15.6529794921875,4.119678974151611,0.7629299163818359,-0.4500110149383545
1733075418651697400,15.669697509765625,4.762414455413818,1.5917243957519531,-0.2672841548919678
1733075418668406000,15.686406005859375,4.9520792961120605,2.889042377471924,-0.5213773250579834
1733075418685122800,15.703122802734375,4.647955417633057,4.141549110412598,-0.6842296123504639
1733075418701828900,15.719828857421875,3.8769073486328125,4.923622131347656,-0.44817495346069336
1733075418718553000,15.736552978515626,2.9049887657165527,4.935257434844971,-0.08591890335083008
1733075418735267300,15.753267333984375,1.5481096506118774,4.196723937988281,0.14348697662353516
1733075418751976700,15.769976806640624,-0.17185258865356445,2.608142852783203,0.3080403804779053
1733075418768711000,15.7867109375,-2.7372846603393555,-0.1461191177368164,0.8114869594573975
1733075418785428000,15.803427978515625,-8.429754257202148,-4.576242446899414,1.6664433479309082
1733075418802142000,15.820141845703125,-15.786747932434082,-10.20805549621582,2.369131088256836
1733075418818867000,15.836866943359375,-14.555487632751465,-10.436458587646484,2.0551891326904297
1733075418835572700,15.85357275390625,-8.411776542663574,-4.353982925415039,1.2507197856903076
1733075418852289300,15.870289306640625,-1.7936463356018066,1.7602262496948242,-0.15254902839660645
1733075418869003500,15.88700341796875,3.7391514778137207,4.909104347229004,-1.0694243907928467
1733075418885715500,15.903715576171875,6.73969030380249,3.6293020248413086,-0.6031661033630371
1733075418902438400,15.9204384765625,8.576934814453125,-0.05869293212890625,0.3949580192565918
1733075418919134500,15.937134521484374,7.843294143676758,-3.0989952087402344,1.9863083362579346
1733075418935851800,15.953851806640625,4.752335548400879,-3.4287939071655273,2.4907023906707764
1733075418952568300,15.970568359375,1.9846681356430054,-1.454904556274414,1.1658987998962402
1733075418969282300,15.9872822265625,0.20269811153411865,0.018724441528320312,0.791893482208252
1733075418985998800,16.003998779296875,-0.6099250316619873,0.07429027557373047,1.9104547500610352
1733075419002699500,16.020699462890626,1.002993106842041,-0.6547660827636719,1.9903831481933594
1733075419019445500,16.037445556640623,2.256612539291382,-0.7148952484130859,1.4068341255187988
1733075419036156700,16.05415673828125,3.241499423980713,-0.40462303161621094,0.4774291515350342
1733075419052873200,16.070873291015626,3.5875117778778076,-0.1767110824584961,-0.7192869186401367
1733075419069587700,16.087587646484376,3.0825047492980957,0.047245025634765625,-1.5762262344360352
1733075419086304300,16.10430419921875,2.2015795707702637,0.40725040435791016,-2.3304052352905273
1733075419103013400,16.121013427734376,1.6004098653793335,1.080246925354004,-3.1498472690582275
1733075419119739600,16.13773974609375,0.7062649726867676,1.772761344909668,-2.7373597621917725
1733075419136432600,16.1544326171875,0.10170366615056992,2.015549659729004,-1.4956297874450684
1733075419153152800,16.17115283203125,-0.30770233273506165,1.6398797035217285,-0.6493062973022461
1733075419169866200,16.1878662109375,-0.8207367658615112,0.8888149261474609,0.06325149536132812
1733075419186583000,16.2045830078125,-1.354414701461792,0.2158193588256836,0.4288012981414795
1733075419203297300,16.22129736328125,-2.0713906288146973,0.06283855438232422,0.5591335296630859
1733075419220014000,16.23801416015625,-2.856717824935913,0.4068002700805664,0.5438122749328613
1733075419236744400,16.254744384765626,-3.6309003829956055,0.7325429916381836,0.12679171562194824
1733075419253457700,16.271457763671876,-4.071885108947754,0.9371671676635742,-0.32765841484069824
1733075419270172000,16.288171875,-3.680650234222412,0.798213005065918,-0.38779425621032715
1733075419286862300,16.3048623046875,-2.876399517059326,0.4048442840576172,-0.05117940902709961
1733075419303602400,16.3216025390625,-2.1103463172912598,-0.03222370147705078,0.20452404022216797
1733075419320319000,16.338319091796876,-1.8157577514648438,-0.30220890045166016,0.07539582252502441
1733075419337033700,16.35503369140625,-1.973503589630127,-0.4226827621459961,-0.42569708824157715
1733075419353751300,16.371751220703125,-2.3040828704833984,-0.506190299987793,-1.0300490856170654
1733075419370462700,16.388462646484374,-2.616621971130371,-0.8319101333618164,-1.5948410034179688
1733075419387180300,16.40518017578125,-2.6371734142303467,-1.499436378479004,-2.01702618598938
1733075419403894800,16.421894775390626,-2.278183698654175,-2.5070486068725586,-2.400424003601074
1733075419420595000,16.438594970703125,-1.8501877784729004,-3.650117874145508,-2.617588996887207
1733075419437312300,16.455312255859376,-2.0810296535491943,-4.5707550048828125,-2.63061261177063
1733075419454028500,16.472028564453126,-3.0096025466918945,-5.096275329589844,-2.816484212875366
1733075419470743300,16.488743408203124,-12.759811401367188,-5.251688003540039,-1.913872480392456
1733075419487459600,16.50545947265625,-12.808136940002441,-4.158591270446777,1.3139302730560303
1733075419504159200,16.5221591796875,-5.036630630493164,-1.9022798538208008,2.8870439529418945
1733075419520906500,16.538906494140626,-0.16211152076721191,-0.18140602111816406,2.991229772567749
1733075419537587500,16.55558740234375,2.2446346282958984,-0.09001350402832031,2.422490119934082
1733075419554334200,16.572334228515626,2.5730373859405518,-1.3223705291748047,1.773766279220581
1733075419571048200,16.589048095703124,2.220824718475342,-3.035135269165039,1.687849760055542
1733075419587765000,16.605764892578126,2.1706864833831787,-4.541472434997559,1.7266786098480225
1733075419604479200,16.622479248046876,2.5922417640686035,-5.028258323669434,2.334031820297241
1733075419621179400,16.639179443359374,3.163391590118408,-4.245565414428711,3.0909664630889893
1733075419637896400,16.655896484375,3.327671527862549,-2.639969825744629,3.5993573665618896
1733075419654613000,16.672613037109375,4.149903297424316,-0.7417068481445312,3.516085147857666
1733075419671327500,16.689327392578125,3.794081211090088,0.9270782470703125,2.6007497310638428
1733075419688044000,16.7060439453125,1.8044508695602417,1.9289937019348145,1.8744356632232666
1733075419704744000,16.722743896484374,0.7099952697753906,2.7058959007263184,0.7766480445861816
1733075419721491000,16.739490966796875,0.48309946060180664,3.112778663635254,-0.4646306037902832
1733075419738202400,16.756202392578125,2.112800121307373,3.0594053268432617,-1.26084303855896
1733075419754918400,16.77291845703125,3.828307628631592,2.3006362915039062,-1.6076457500457764
1733075419771632600,16.789632568359377,4.671414375305176,1.415018081665039,-1.975285291671753
1733075419788349200,16.80634912109375,5.122663497924805,1.4735808372497559,-2.290445566177368
1733075419805063200,16.823063232421877,5.255490303039551,2.2848739624023438,-1.7383606433868408
1733075419821780000,16.839780029296875,5.0373992919921875,3.4573841094970703,-1.330451250076294
1733075419838494000,16.856493896484373,4.620953559875488,4.5084710121154785,-1.3556878566741943
1733075419855210800,16.873210693359376,4.1413750648498535,4.847277641296387,-1.2284836769104004
1733075419871925000,16.889925048828125,3.137357234954834,4.557587623596191,-1.0529427528381348
1733075419888641500,16.9066416015625,1.5773195028305054,4.024279594421387,-0.6031656265258789
1733075419905339400,16.92333935546875,-0.9723334312438965,3.0343880653381348,0.11537766456604004
1733075419922058800,16.940058837890625,-4.030129909515381,1.1362695693969727,1.0195574760437012
1733075419938773200,16.956773193359375,-7.984189987182617,-2.61397647857666,1.2459139823913574
1733075419955481300,16.9734814453125,-12.92017650604248,-8.448869705200195,1.0286262035369873
1733075419972203500,16.99020361328125,-14.744619369506836,-12.491815567016602,0.5663156509399414
1733075419988920300,17.00692041015625,-9.937651634216309,-9.243396759033203,1.1892707347869873
1733075420005628000,17.0236279296875,-4.75930118560791,-3.380246162414551,1.8920531272888184
1733075420022364200,17.0403642578125,-0.8290660381317139,1.0796823501586914,2.8078434467315674
1733075420039078100,17.057078125,2.5347440242767334,1.7419233322143555,4.378640174865723
1733075420055795000,17.073794921875,5.9459943771362305,-0.1382770538330078,3.4614038467407227
1733075420072509200,17.09050927734375,7.924975395202637,0.12139320373535156,0.1389462947845459
1733075420089225700,17.107225830078125,6.921355247497559,1.8832054138183594,0.05413174629211426
1733075420105923300,17.12392333984375,4.292255401611328,3.0754995346069336,0.8711192607879639
1733075420122643200,17.140643310546874,2.258648157119751,2.8175668716430664,0.8820199966430664
1733075420139357700,17.157357666015624,1.492834448814392,1.420283317565918,0.605231523513794
1733075420156065800,17.174065673828125,1.616594672203064,-0.5054244995117188,0.4911074638366699
1733075420172788000,17.1907880859375,1.952400803565979,-2.1799612045288086,0.6560933589935303
1733075420189504500,17.20750439453125,2.2173099517822266,-2.6832199096679688,-0.19429755210876465
1733075420206214100,17.224214111328124,2.640774726867676,-2.1812171936035156,-1.6361303329467773
1733075420222948900,17.240948974609374,2.8082971572875977,-1.2975387573242188,-2.835707187652588
1733075420239662600,17.25766259765625,2.913571834564209,-0.3838367462158203,-3.6708083152770996
1733075420256379400,17.27437939453125,2.854339838027954,0.5391473770141602,-3.785325288772583
1733075420273093600,17.29109375,2.1776514053344727,1.088827133178711,-2.660740613937378
1733075420289808400,17.307808349609374,0.9377838969230652,1.547558307647705,-1.2982430458068848
1733075420306526000,17.32452587890625,-0.5329065322875977,1.5581169128417969,-0.34705018997192383
1733075420323240700,17.34124072265625,-1.6741019487380981,1.2468156814575195,0.20140981674194336
1733075420339955200,17.357955078125,-2.851438045501709,1.0155420303344727,0.8717195987701416
1733075420356671700,17.374671630859375,-6.858846664428711,1.3140125274658203,2.4018852710723877
1733075420373385500,17.391385498046876,-6.216939926147461,1.566434383392334,2.0637738704681396
1733075420390102000,17.40810205078125,-3.2986600399017334,1.2644810676574707,1.1444928646087646
1733075420406800100,17.424800048828125,-1.859278678894043,0.925236701965332,0.18009710311889648
1733075420423520000,17.44152001953125,-1.3540551662445068,0.6292495727539062,-0.30440759658813477
1733075420440233700,17.458233642578126,-1.1607701778411865,0.30484580993652344,-0.41097164154052734
1733075420456942300,17.4749423828125,-1.1077343225479126,-0.013223648071289062,-0.4996938705444336
1733075420473655300,17.4916552734375,-1.1383010149002075,-0.29925537109375,-0.5170772075653076
1733075420490381600,17.508381591796876,-1.2061870098114014,-0.40775299072265625,-0.4842526912689209
1733075420507089700,17.525089599609377,-1.4719676971435547,-0.4030647277832031,-0.21591448783874512
1733075420523825200,17.5418251953125,-1.8517322540283203,-0.7841396331787109,-0.14461278915405273
1733075420540543000,17.55854296875,-2.322875499725342,-1.5134391784667969,-0.7407121658325195
1733075420557252600,17.575252685546875,-2.7102582454681396,-2.3876571655273438,-1.6511485576629639
1733075420573970000,17.591969970703126,-2.875302314758301,-3.5899906158447266,-2.323927640914917
1733075420590670300,17.60867041015625,-3.1625256538391113,-5.258392333984375,-2.590378761291504
1733075420607388000,17.625387939453127,-3.6673812866210938,-6.953974723815918,-3.0693023204803467
1733075420624104400,17.6421044921875,-12.251119613647461,-7.933372497558594,-5.128515243530273
1733075420640818200,17.658818115234375,-11.249103546142578,-5.9859619140625,-1.3112014532089233
1733075420657519900,17.675519775390626,-5.987386226654053,-2.5447463989257812,2.358614206314087
1733075420674249200,17.692249267578124,-1.1809017658233643,-0.40278053283691406,3.0458528995513916
1733075420690982400,17.708982421875,2.0904197692871094,-0.25415611267089844,2.3418350219726562
1733075420707693000,17.725693115234375,2.7015933990478516,-1.1899728775024414,2.1544899940490723
1733075420724409600,17.74240966796875,2.7144970893859863,-2.654682159423828,3.3602030277252197
1733075420741124000,17.7591240234375,2.939873218536377,-3.9414167404174805,4.4519500732421875
1733075420757835300,17.775835205078124,3.7610490322113037,-3.9479169845581055,4.737422943115234
1733075420774559700,17.792559814453124,4.169123649597168,-2.9845352172851562,4.272157669067383
1733075420791271200,17.809271240234374,3.827970027923584,-1.544973373413086,3.6115074157714844
1733075420807985400,17.8259853515625,3.6484217643737793,-0.013326644897460938,2.853262424468994
1733075420824702000,17.842701904296874,2.7042200565338135,1.2801132202148438,1.7534055709838867
1733075420841415700,17.859415771484375,2.4289674758911133,2.442324638366699,1.0263292789459229
1733075420858132500,17.876132568359374,2.278332471847534,3.153379440307617,-0.11989974975585938
1733075420874846700,17.8928466796875,1.4290045499801636,3.009124755859375,-1.273817777633667
1733075420891547400,17.90954736328125,1.9699422121047974,2.245258331298828,-1.9749202728271484
1733075420908264200,17.92626416015625,3.6559629440307617,1.214594841003418,-2.1688430309295654
1733075420924980700,17.942980712890623,4.740029811859131,0.4392824172973633,-2.4778149127960205
1733075420941679900,17.959679931640625,5.265463829040527,1.0266880989074707,-2.8788561820983887
1733075420958403600,17.976403564453125,5.218667984008789,2.379589080810547,-2.106776475906372
1733075420975125800,17.993125732421873,4.940334320068359,3.840717315673828,-1.698969841003418
1733075420991858200,18.009858154296875,4.663570404052734,4.902766227722168,-1.8478665351867676
1733075421008544000,18.0265439453125,3.9170520305633545,4.890990734100342,-1.9942731857299805
1733075421025290500,18.04329052734375,2.4921112060546875,4.067599296569824,-1.8224549293518066
1733075421042000600,18.060000732421877,-0.2787504196166992,2.820038318634033,-1.0403690338134766
1733075421058717000,18.076717041015623,-3.7030882835388184,1.0201473236083984,0.3227677345275879
1733075421075415000,18.0934150390625,-7.729650497436523,-1.9637937545776367,1.3483493328094482
1733075421092131000,18.110131103515624,-13.16828727722168,-6.781406402587891,2.0305025577545166
1733075421108852500,18.1268525390625,-16.292884826660156,-10.420778274536133,2.669609785079956
1733075421125565400,18.1435654296875,-10.622615814208984,-8.309561729431152,2.6440200805664062
1733075421142279700,18.16027978515625,-3.769624710083008,-3.385491371154785,1.468538522720337
1733075421158980000,18.17697998046875,1.9396884441375732,1.4826030731201172,-0.2839527130126953
1733075421175726600,18.1937265625,4.718599319458008,4.510613441467285,-0.8437576293945312
1733075421192412000,18.210411865234374,4.0980224609375,2.5764074325561523,0.24895524978637695
1733075421209159000,18.227158935546875,5.113091468811035,-0.7225732803344727,0.5748214721679688
1733075421225870800,18.243870849609376,6.3749895095825195,-2.1202735900878906,2.3600573539733887
1733075421242585000,18.260585205078126,4.178364276885986,-1.243910789489746,2.5952157974243164
1733075421259301400,18.27730126953125,1.5580885410308838,0.20395469665527344,1.0005085468292236
1733075421276015900,18.294015869140626,-1.3129202127456665,0.8115196228027344,1.0533740520477295
1733075421292732400,18.310732421875,-0.9301251173019409,0.30829906463623047,1.8392245769500732
1733075421309446700,18.32744677734375,1.8420673608779907,-0.826807975769043,1.3607690334320068
1733075421326163000,18.344162841796877,3.622856855392456,-1.4540328979492188,0.4501073360443115
1733075421342877700,18.360877685546875,4.563741683959961,-1.4904327392578125,-0.8389654159545898
1733075421359594200,18.37759423828125,4.288668632507324,-1.1972627639770508,-2.1222634315490723
1733075421376308000,18.394307861328127,3.2780327796936035,-0.6213445663452148,-2.6443469524383545
1733075421393008000,18.411008056640625,2.17834734916687,0.11840438842773438,-2.8182828426361084
1733075421409725700,18.4277255859375,1.3684594631195068,1.0410470962524414,-2.7197909355163574
1733075421426442200,18.444442138671874,0.6981467008590698,1.6380996704101562,-1.8703618049621582
1733075421443156200,18.46115625,0.014558687806129456,1.628953456878662,-0.8635778427124023
1733075421459857200,18.477857177734375,-0.5598285794258118,1.2861385345458984,0.01584649085998535
1733075421476587300,18.494587158203124,-0.9048125743865967,0.9215774536132812,0.648798942565918
1733075421493320400,18.511320556640626,-1.379417896270752,0.7155017852783203,1.0829546451568604
1733075421510031000,18.528031005859376,-2.152719020843506,1.1265783309936523,1.5443594455718994
1733075421526747600,18.54474755859375,-2.5603785514831543,1.5086755752563477,1.6100578308105469
1733075421543462100,18.561462158203124,-2.8147361278533936,1.4591078758239746,0.7943201065063477
1733075421560162300,18.578162353515626,-2.970086097717285,1.2169532775878906,-0.012073993682861328
1733075421576879400,18.59487939453125,-2.743502616882324,0.7128114700317383,-0.3394761085510254
1733075421593596000,18.611595947265624,-2.3367998600006104,0.14835166931152344,-0.22671294212341309
1733075421610303000,18.628302978515624,-2.065706253051758,-0.33513355255126953,-0.08170056343078613
1733075421627027000,18.64502685546875,-2.1665964126586914,-0.6391258239746094,-0.18980979919433594
1733075421643722000,18.661721923828125,-2.574458599090576,-0.9404592514038086,-0.7974390983581543
1733075421660438000,18.67843798828125,-2.8715293407440186,-1.391484260559082,-1.4835684299468994
1733075421677189600,18.695189697265626,-3.0246145725250244,-2.053804397583008,-2.0137319564819336
1733075421693901600,18.711901611328123,-2.7925384044647217,-2.701444625854492,-2.632455348968506
1733075421710615600,18.728615478515625,-2.0238330364227295,-3.338414192199707,-3.1424636840820312
1733075421727332400,18.745332275390624,-1.3192617893218994,-4.243355751037598,-3.5055177211761475
1733075421744046600,18.762046630859373,-1.3081597089767456,-5.419198036193848,-3.5704357624053955
1733075421760763100,18.77876318359375,-1.9478859901428223,-6.558538436889648,-3.9616425037384033
1733075421777477000,18.79547705078125,-12.962403297424316,-6.407021522521973,-2.510242223739624
1733075421794193700,18.812193603515624,-11.596668243408203,-4.015327453613281,1.2804744243621826
1733075421810908000,18.828907958984374,-3.635556221008301,-1.3657712936401367,2.3419854640960693
1733075421827624700,18.845624755859376,0.319105863571167,0.4633798599243164,2.208230972290039
1733075421844338700,18.862338623046874,1.9967771768569946,1.0381689071655273,1.29925537109375
1733075421861055200,18.87905517578125,2.4868407249450684,0.23011302947998047,0.6068754196166992
1733075421877753300,18.89575341796875,2.5698533058166504,-1.4253911972045898,1.5272645950317383
1733075421894473200,18.91247314453125,2.7417397499084473,-3.143143653869629,2.3579912185668945
1733075421911187000,18.92918701171875,3.313455581665039,-3.8961400985717773,2.7236435413360596
1733075421927903700,18.94590380859375,3.641552448272705,-3.1338577270507812,2.4784138202667236
1733075421944614100,18.9626142578125,3.1689085960388184,-1.456883430480957,1.8370790481567383
1733075421961322800,18.97932275390625,1.0134680271148682,-0.2490863800048828,0.8754048347473145
1733075421978064400,18.996064453125,0.04785656929016113,0.48990440368652344,0.14659452438354492
1733075421994778400,19.0127783203125,0.12041902542114258,1.4187226295471191,-0.020406484603881836
1733075422011492900,19.029492919921875,1.356571078300476,1.896866798400879,-0.37967824935913086
1733075422028209700,19.046209716796874,2.6865549087524414,1.86533784866333,-1.432005524635315
1733075422044906800,19.06290673828125,3.951442241668701,1.3123435974121094,-2.2093892097473145
1733075422061626600,19.079626708984375,4.270381450653076,0.32329559326171875,-2.7995262145996094
1733075422078341000,19.096341064453124,4.136429309844971,0.23470592498779297,-3.026824951171875
1733075422095057700,19.1130576171875,4.05980920791626,1.331425666809082,-2.2601265907287598
1733075422111757600,19.129757568359373,4.382265567779541,2.6399059295654297,-1.3502914905548096
1733075422128477700,19.146477783203125,4.608635902404785,3.9600205421447754,-1.0331740379333496
1733075422145219000,19.163218994140625,4.556811809539795,5.37016487121582,-0.7597880363464355
1733075422161932500,19.1799326171875,4.331514358520508,6.078098773956299,-0.3412489891052246
1733075422178646500,19.196646484375,3.545565366744995,5.930527210235596,0.13818359375
1733075422195358500,19.2133583984375,2.1880829334259033,5.166362762451172,0.45792388916015625
1733075422212082000,19.23008203125,-0.13986563682556152,3.4786195755004883,0.866145133972168
1733075422228793900,19.2467939453125,-4.065435409545898,0.35471439361572266,1.674264669418335
1733075422245507800,19.2635078125,-10.105286598205566,-5.313712120056152,2.3993887901306152
1733075422262224600,19.280224609375,-19.05150032043457,-13.314862251281738,2.1452441215515137
1733075422278939000,19.29693896484375,-18.1334285736084,-13.968929290771484,1.9414362907409668
1733075422295655400,19.313655517578123,-10.475641250610352,-6.764431953430176,2.0434963703155518
1733075422312369400,19.330369384765625,-2.2201035022735596,0.2998085021972656,1.6896953582763672
1733075422329086200,19.347086181640623,4.22368049621582,3.363780975341797,1.8268284797668457
1733075422345800200,19.36380029296875,8.225542068481445,0.48911094665527344,1.6718106269836426
1733075422362517000,19.38051708984375,7.209627151489258,-2.0550289154052734,-1.1223101615905762
1733075422379214300,19.39721435546875,6.948938846588135,-2.2831592559814453,-2.1253771781921387
1733075422395934500,19.4139345703125,4.984655380249023,0.5675821304321289,0.1620044708251953
1733075422412648700,19.430648681640626,2.2070822715759277,3.175503730773926,0.015249013900756836
1733075422429365500,19.447365478515625,0.7411224842071533,3.951601028442383,-0.8488588333129883
1733075422446079500,19.46407958984375,0.39669549465179443,2.800619125366211,-0.5863661766052246
1733075422462780000,19.48077978515625,0.7304346561431885,0.4585533142089844,1.089841604232788
1733075422479526700,19.497526611328126,1.3414485454559326,-1.8831548690795898,2.0613884925842285
1733075422496221400,19.514221435546876,2.078110694885254,-2.9225425720214844,1.2984602451324463
1733075422512954000,19.5309541015625,2.7491650581359863,-2.2995128631591797,-0.27834653854370117
1733075422529654500,19.547654541015625,2.810025453567505,-1.088749885559082,-1.3087427616119385
1733075422546372000,19.5643720703125,2.7321054935455322,-0.03699302673339844,-2.449425458908081
1733075422563088600,19.581088623046874,2.2249996662139893,1.0469789505004883,-3.0687670707702637
1733075422579802600,19.597802734375,1.2832306623458862,1.9958763122558594,-2.788942813873291
1733075422596522800,19.614522705078127,0.09510546922683716,2.227890968322754,-1.7957204580307007
1733075422613219300,19.63121923828125,-1.2153704166412354,1.6408863067626953,-0.8753857612609863
1733075422629966600,19.647966552734374,-2.3140649795532227,0.7186508178710938,-0.4168856143951416
1733075422646677200,19.66467724609375,-2.9551873207092285,0.08524513244628906,-0.15456581115722656
1733075422663389200,19.68138916015625,-4.447828769683838,0.21725177764892578,0.8156216144561768
1733075422680113000,19.69811279296875,-4.911960124969482,0.8021993637084961,1.369715929031372
1733075422696824600,19.714824462890626,-3.01918363571167,0.710505485534668,0.8874678611755371
1733075422713538600,19.73153857421875,-1.6973751783370972,0.3387575149536133,0.3544330596923828
1733075422730255400,19.74825537109375,-1.5562329292297363,0.22577571868896484,-0.33928775787353516
1733075422746969600,19.764969482421876,-1.5950896739959717,0.33861541748046875,-0.6821951866149902
1733075422763686700,19.781686767578126,-1.6152048110961914,0.334503173828125,-0.5475516319274902
1733075422780400400,19.798400390625,-1.737786054611206,0.09665107727050781,-0.4097299575805664
1733075422797116700,19.81511669921875,-1.781285285949707,-0.34142589569091797,-0.12413978576660156
1733075422813831400,19.83183154296875,-1.938297152519226,-0.8956441879272461,0.11600542068481445
1733075422830548000,19.8485478515625,-2.4755895137786865,-1.5444555282592773,0.1341702938079834
1733075422847243000,19.865242919921876,-3.21907901763916,-2.260427474975586,-0.525702953338623
1733075422863962400,19.88196240234375,-3.966264247894287,-3.027912139892578,-1.6166472434997559
1733075422880679700,19.8986796875,-4.645172119140625,-4.058719635009766,-2.3850393295288086
1733075422897396500,19.915396484375,-7.395226001739502,-5.664681434631348,-3.567178726196289
1733075422914102800,19.932102783203124,-8.978657722473145,-7.571622848510742,-4.5435075759887695
1733075422930827000,19.948826904296876,-5.952130317687988,-7.316493034362793,-5.085602283477783
1733075422947541200,19.965541259765626,-5.290471076965332,-5.522311210632324,-3.595292329788208
1733075422964250000,19.98225,-5.0882673263549805,-2.764493942260742,0.03444194793701172
1733075422980985000,19.998985107421873,-2.567300319671631,-1.231001853942871,2.3463354110717773
1733075422997702100,20.0157021484375,1.2404775619506836,-1.5024070739746094,2.618628978729248
1733075423014399700,20.032399658203126,2.7364563941955566,-2.470889091491699,2.8626937866210938
1733075423031119400,20.049119384765625,3.151892900466919,-3.444913864135742,4.185535907745361
1733075423047833600,20.06583349609375,3.6602511405944824,-3.8188514709472656,5.533319473266602
1733075423064541700,20.082541748046875,4.2505598068237305,-2.952908515930176,6.500123977661133
1733075423081264600,20.0992646484375,3.4213125705718994,-0.9678211212158203,5.072241306304932
1733075423097981200,20.115981201171873,1.390068769454956,0.30690956115722656,3.581526041030884
1733075423114689000,20.13268896484375,-0.03805398941040039,1.167281150817871,2.1581642627716064
1733075423131419400,20.14941943359375,1.2375249862670898,2.2141661643981934,1.4026086330413818
1733075423148145000,20.166144775390624,2.9410433769226074,2.521300792694092,0.32854413986206055
1733075423164856000,20.18285595703125,2.937420129776001,2.013673782348633,-1.7649459838867188
1733075423181569800,20.19956982421875,3.480691432952881,1.2658672332763672,-2.9381468296051025
1733075423198286000,20.2162861328125,4.068697929382324,0.42430782318115234,-3.222259759902954
1733075423215001000,20.2330009765625,4.108730316162109,-0.43570995330810547,-3.2158238887786865
1733075423231717600,20.249717529296873,4.26290225982666,0.507026195526123,-2.5983715057373047
1733075423248432000,20.26643212890625,5.110602378845215,2.092103958129883,-1.6566815376281738
1733075423265148400,20.2831484375,5.850342273712158,3.680387496948242,-0.8249995708465576
1733075423281862700,20.299862548828123,5.822999477386475,5.295889854431152,-0.5362198352813721
1733075423298579000,20.316578857421874,5.385745048522949,6.435573577880859,-0.4373917579650879
1733075423315273700,20.333273681640627,4.590211868286133,6.46822452545166,-0.22629714012145996
1733075423332009700,20.350009765625,2.9518914222717285,5.624460697174072,0.15604209899902344
1733075423348724200,20.36672412109375,-0.05222272872924805,3.8589963912963867,0.6130857467651367
1733075423365424000,20.383424072265626,-3.810518741607666,0.9126005172729492,1.1251194477081299
1733075423382141400,20.400141357421877,-9.62159538269043,-3.5004310607910156,1.753530740737915
1733075423398858000,20.41685791015625,-17.432226181030273,-9.330018043518066,1.7457633018493652
1733075423415572500,20.433572509765625,-17.879384994506836,-12.613648414611816,0.6863501071929932
1733075423432289300,20.450289306640624,-10.379748344421387,-8.272483825683594,1.2794392108917236
1733075423449003000,20.4670029296875,-4.020174026489258,-1.7819414138793945,1.8946292400360107
1733075423465728000,20.48372802734375,0.9902045726776123,3.2739925384521484,1.1795039176940918
1733075423482447400,20.500447265625,4.360159873962402,5.303725242614746,0.5541434288024902
1733075423499147500,20.5171474609375,7.05225133895874,3.24216365814209,0.46076059341430664
1733075423515864600,20.533864501953126,8.37734317779541,-0.21249008178710938,0.7978317737579346
1733075423532581000,20.5505810546875,6.570215225219727,-1.9338703155517578,2.380159854888916
1733075423549295900,20.5672958984375,3.5582144260406494,-2.2792835235595703,2.8359410762786865
1733075423565996300,20.583996337890625,-0.2087421417236328,-2.979276657104492,2.4286842346191406
1733075423582726400,20.600726318359374,-0.9347639083862305,-2.8381614685058594,1.3408098220825195
1733075423599457500,20.61745751953125,1.4825553894042969,-1.9870481491088867,0.3615548610687256
1733075423616172500,20.634172607421874,2.6893234252929688,-0.7928075790405273,-0.9967200756072998
1733075423632887000,20.650886962890624,3.3356075286865234,0.09052753448486328,-2.0832009315490723
1733075423649601000,20.66760107421875,3.36336088180542,0.663909912109375,-2.6468396186828613
1733075423666317600,20.684317626953124,3.37992525100708,1.16436767578125,-2.9660580158233643
1733075423683032000,20.701031982421874,2.9186995029449463,1.479576587677002,-2.6865897178649902
1733075423699748900,20.717748779296876,2.5678365230560303,1.4492778778076172,-1.706022024154663
1733075423716462600,20.734462646484374,2.2765190601348877,1.2854328155517578,-0.4358394145965576
1733075423733179400,20.751179443359376,1.824325442314148,1.455632209777832,0.3873281478881836
1733075423749894000,20.767893798828126,0.77414870262146,1.6677284240722656,0.8556079864501953
1733075423766610400,20.7846103515625,-0.15239983797073364,1.755448341369629,1.2687962055206299
1733075423783291100,20.801291015625,-0.5342735052108765,1.8597421646118164,1.7053687572479248
1733075423800041000,20.818041015625,-0.8704900741577148,1.8631420135498047,2.0645253658294678
1733075423816755200,20.834755126953127,-1.4462265968322754,1.4583096504211426,1.637786865234375
1733075423833472000,20.851471923828125,-2.162580966949463,0.7431268692016602,0.4190690517425537
1733075423850165200,20.868165283203126,-2.814784049987793,0.033080101013183594,-0.635831356048584
1733075423866893800,20.884893798828124,-3.292900562286377,-0.43500232696533203,-1.0941762924194336
1733075423883603700,20.901603759765624,-3.5610711574554443,-0.5420970916748047,-0.9177999496459961
1733075423900320500,20.918320556640627,-3.65714693069458,-0.43411827087402344,-0.37564516067504883
1733075423917026600,20.935026611328126,-3.739530563354492,-0.42804718017578125,-0.09784269332885742
1733075423933751000,20.9517509765625,-3.983531951904297,-0.7170896530151367,-0.4250054359436035
1733075423950481200,20.968481201171876,-4.137129783630371,-1.3874082565307617,-0.9502315521240234
1733075423967172000,20.985172119140625,-3.942758321762085,-2.160477638244629,-1.5059775114059448
1733075423983892700,21.001892822265624,-3.2727580070495605,-2.624317169189453,-2.121251106262207
1733075424000612400,21.0186123046875,-2.3893959522247314,-2.9451723098754883,-2.6364145278930664
1733075424017319700,21.035319580078124,-1.7225193977355957,-3.334859848022461,-2.92659854888916
1733075424034030800,21.05203076171875,-1.5196888446807861,-4.352190971374512,-2.811944007873535
1733075424050757600,21.068757568359374,-1.8345972299575806,-6.108677864074707,-2.1348249912261963
1733075424067451000,21.085450927734374,-2.448591947555542,-7.087470054626465,-2.0144174098968506
1733075424084205000,21.102205078125,-8.168155670166016,-5.199711799621582,-0.945580005645752
1733075424100918800,21.118918701171875,-13.820512771606445,-2.2017440795898438,2.460782527923584
1733075424117632300,21.13563232421875,-6.291172027587891,-0.22047710418701172,3.7434844970703125
1733075424134349000,21.15234912109375,1.0636135339736938,-0.11449718475341797,2.913663625717163
1733075424151063600,21.1690634765625,3.5296223163604736,-1.2381000518798828,2.46115779876709
1733075424167779800,21.18577978515625,3.32488751411438,-2.4938526153564453,3.3629305362701416
